Subject,Age,Handedness,Sex,Block,Trial,CellLabel,Expression,Target.ACC,Target.RT,TrialType
4,19,right,male,1,1,FRi,Fearful,1,852,Inongruent
4,19,right,male,1,2,NDl,Neutral,1,595,Direct
4,19,right,male,1,3,NRl,Neutral,1,409,Inongruent
4,19,right,male,1,4,FRi,Fearful,1,412,Inongruent
4,19,right,male,1,5,NRl,Neutral,1,408,Inongruent
4,19,right,male,1,6,NLr,Neutral,1,433,Inongruent
4,19,right,male,1,7,NRr,Neutral,1,423,Congruent
4,19,right,male,1,8,FDr,Fearful,1,405,Direct
4,19,right,male,1,9,FRc,Fearful,1,374,Congruent
4,19,right,male,1,10,FLi,Fearful,1,421,Inongruent
4,19,right,male,1,11,FLc,Fearful,1,438,Congruent
4,19,right,male,1,12,FDl,Fearful,1,513,Direct
4,19,right,male,1,13,NDr,Neutral,1,337,Direct
4,19,right,male,1,14,NLl,Neutral,1,355,Congruent
4,19,right,male,1,15,NLl,Neutral,1,417,Congruent
4,19,right,male,1,16,NLr,Neutral,1,415,Inongruent
4,19,right,male,1,17,NLr,Neutral,1,398,Inongruent
4,19,right,male,1,18,FDl,Fearful,1,381,Direct
4,19,right,male,1,19,FDr,Fearful,1,279,Direct
4,19,right,male,1,20,NRl,Neutral,1,344,Inongruent
4,19,right,male,1,21,FRc,Fearful,1,347,Congruent
4,19,right,male,1,22,NDl,Neutral,1,353,Direct
4,19,right,male,1,23,NDr,Neutral,1,288,Direct
4,19,right,male,1,24,FRc,Fearful,1,311,Congruent
4,19,right,male,1,25,NRl,Neutral,1,329,Inongruent
4,19,right,male,1,26,FLi,Fearful,1,367,Inongruent
4,19,right,male,1,27,NLr,Neutral,1,452,Inongruent
4,19,right,male,1,28,NDl,Neutral,1,309,Direct
4,19,right,male,1,29,NLl,Neutral,1,395,Congruent
4,19,right,male,1,30,FDl,Fearful,1,430,Direct
4,19,right,male,1,31,FDr,Fearful,1,418,Direct
4,19,right,male,1,32,FRc,Fearful,1,436,Congruent
4,19,right,male,1,33,FLi,Fearful,1,373,Inongruent
4,19,right,male,1,34,NLr,Neutral,1,444,Inongruent
4,19,right,male,1,35,NRl,Neutral,1,432,Inongruent
4,19,right,male,1,36,FDl,Fearful,1,427,Direct
4,19,right,male,1,37,FRc,Fearful,1,379,Congruent
4,19,right,male,1,38,NLr,Neutral,1,497,Inongruent
4,19,right,male,1,39,NDr,Neutral,1,393,Direct
4,19,right,male,1,40,FDr,Fearful,1,459,Direct
4,19,right,male,1,41,NLl,Neutral,1,452,Congruent
4,19,right,male,1,42,FRi,Fearful,1,454,Inongruent
4,19,right,male,1,43,NDl,Neutral,1,354,Direct
4,19,right,male,1,44,NDl,Neutral,1,375,Direct
4,19,right,male,1,45,NDr,Neutral,1,350,Direct
4,19,right,male,1,46,FRi,Fearful,1,395,Inongruent
4,19,right,male,1,47,NDl,Neutral,1,451,Direct
4,19,right,male,1,48,FLi,Fearful,1,395,Inongruent
4,19,right,male,1,49,NRr,Neutral,1,436,Congruent
4,19,right,male,1,50,NDr,Neutral,1,348,Direct
4,19,right,male,1,51,FDr,Fearful,1,364,Direct
4,19,right,male,1,52,FRi,Fearful,1,349,Inongruent
4,19,right,male,1,53,FLc,Fearful,1,400,Congruent
4,19,right,male,1,54,NRr,Neutral,1,322,Congruent
4,19,right,male,1,55,FDl,Fearful,1,440,Direct
4,19,right,male,1,56,NRr,Neutral,1,291,Congruent
4,19,right,male,1,57,FLc,Fearful,1,371,Congruent
4,19,right,male,1,58,NDr,Neutral,1,244,Direct
4,19,right,male,1,59,NLl,Neutral,1,314,Congruent
4,19,right,male,1,60,NLl,Neutral,1,379,Congruent
4,19,right,male,1,61,NLr,Neutral,1,318,Inongruent
4,19,right,male,1,62,FLi,Fearful,1,383,Inongruent
4,19,right,male,1,63,NDr,Neutral,1,350,Direct
4,19,right,male,1,64,FRc,Fearful,1,365,Congruent
4,19,right,male,1,65,NRl,Neutral,1,414,Inongruent
4,19,right,male,1,66,FLi,Fearful,1,377,Inongruent
4,19,right,male,1,67,NRr,Neutral,1,382,Congruent
4,19,right,male,1,68,NLr,Neutral,1,352,Inongruent
4,19,right,male,1,69,FRc,Fearful,1,397,Congruent
4,19,right,male,1,70,NRr,Neutral,1,373,Congruent
4,19,right,male,1,71,FDl,Fearful,1,449,Direct
4,19,right,male,1,72,NLl,Neutral,1,382,Congruent
4,19,right,male,1,73,FDr,Fearful,1,393,Direct
4,19,right,male,1,74,FDl,Fearful,1,373,Direct
4,19,right,male,1,75,FDr,Fearful,1,349,Direct
4,19,right,male,1,76,NRr,Neutral,1,431,Congruent
4,19,right,male,1,77,NDr,Neutral,1,470,Direct
4,19,right,male,1,78,FLc,Fearful,1,389,Congruent
4,19,right,male,1,79,NRr,Neutral,1,353,Congruent
4,19,right,male,1,80,FRi,Fearful,1,458,Inongruent
4,19,right,male,1,81,FLc,Fearful,1,420,Congruent
4,19,right,male,1,82,FLc,Fearful,1,376,Congruent
4,19,right,male,1,83,NLl,Neutral,1,361,Congruent
4,19,right,male,1,84,NRl,Neutral,1,402,Inongruent
4,19,right,male,1,85,FLc,Fearful,1,379,Congruent
4,19,right,male,1,86,FRi,Fearful,1,330,Inongruent
4,19,right,male,1,87,FDl,Fearful,1,356,Direct
4,19,right,male,1,88,FRc,Fearful,1,385,Congruent
4,19,right,male,1,89,FLi,Fearful,1,407,Inongruent
4,19,right,male,1,90,NRl,Neutral,1,423,Inongruent
4,19,right,male,1,91,FRi,Fearful,1,461,Inongruent
4,19,right,male,1,92,NDl,Neutral,1,416,Direct
4,19,right,male,1,93,FLc,Fearful,1,350,Congruent
4,19,right,male,1,94,FLi,Fearful,1,400,Inongruent
4,19,right,male,1,95,FDr,Fearful,1,467,Direct
4,19,right,male,1,96,NDl,Neutral,1,423,Direct
4,19,right,male,2,1,FRi,Fearful,1,369,Inongruent
4,19,right,male,2,2,FRc,Fearful,1,318,Congruent
4,19,right,male,2,3,NLr,Neutral,1,474,Inongruent
4,19,right,male,2,4,FDl,Fearful,1,410,Direct
4,19,right,male,2,5,NRr,Neutral,1,350,Congruent
4,19,right,male,2,6,NRr,Neutral,1,353,Congruent
4,19,right,male,2,7,NDr,Neutral,1,378,Direct
4,19,right,male,2,8,NLl,Neutral,1,395,Congruent
4,19,right,male,2,9,NDl,Neutral,1,487,Direct
4,19,right,male,2,10,FLi,Fearful,1,379,Inongruent
4,19,right,male,2,11,NDr,Neutral,1,431,Direct
4,19,right,male,2,12,FRi,Fearful,1,411,Inongruent
4,19,right,male,2,13,NRl,Neutral,1,462,Inongruent
4,19,right,male,2,14,FLc,Fearful,1,411,Congruent
4,19,right,male,2,15,NDr,Neutral,1,384,Direct
4,19,right,male,2,16,FLc,Fearful,1,435,Congruent
4,19,right,male,2,17,NRl,Neutral,1,386,Inongruent
4,19,right,male,2,18,FRc,Fearful,1,422,Congruent
4,19,right,male,2,19,FRi,Fearful,1,378,Inongruent
4,19,right,male,2,20,FRi,Fearful,1,411,Inongruent
4,19,right,male,2,21,FRc,Fearful,1,368,Congruent
4,19,right,male,2,22,FLi,Fearful,1,400,Inongruent
4,19,right,male,2,23,NLr,Neutral,1,386,Inongruent
4,19,right,male,2,24,NDl,Neutral,1,520,Direct
4,19,right,male,2,25,FLi,Fearful,1,479,Inongruent
4,19,right,male,2,26,FLc,Fearful,1,385,Congruent
4,19,right,male,2,27,NRr,Neutral,1,355,Congruent
4,19,right,male,2,28,NDr,Neutral,1,317,Direct
4,19,right,male,2,29,NLl,Neutral,1,408,Congruent
4,19,right,male,2,30,FDr,Fearful,1,986,Direct
4,19,right,male,2,31,NLr,Neutral,1,453,Inongruent
4,19,right,male,2,32,NLr,Neutral,1,405,Inongruent
4,19,right,male,2,33,FDr,Fearful,1,428,Direct
4,19,right,male,2,34,NLr,Neutral,1,318,Inongruent
4,19,right,male,2,35,FDl,Fearful,1,399,Direct
4,19,right,male,2,36,FDl,Fearful,1,428,Direct
4,19,right,male,2,37,FDr,Fearful,1,461,Direct
4,19,right,male,2,38,NRr,Neutral,1,406,Congruent
4,19,right,male,2,39,NDr,Neutral,1,335,Direct
4,19,right,male,2,40,FDl,Fearful,1,385,Direct
4,19,right,male,2,41,NLl,Neutral,1,418,Congruent
4,19,right,male,2,42,NDl,Neutral,1,404,Direct
4,19,right,male,2,43,NRl,Neutral,1,392,Inongruent
4,19,right,male,2,44,NRl,Neutral,1,453,Inongruent
4,19,right,male,2,45,NDr,Neutral,1,406,Direct
4,19,right,male,2,46,FLi,Fearful,1,429,Inongruent
4,19,right,male,2,47,NLr,Neutral,1,321,Inongruent
4,19,right,male,2,48,FLi,Fearful,1,380,Inongruent
4,19,right,male,2,49,FDr,Fearful,1,396,Direct
4,19,right,male,2,50,NLr,Neutral,1,330,Inongruent
4,19,right,male,2,51,FLi,Fearful,1,413,Inongruent
4,19,right,male,2,52,FLi,Fearful,1,278,Inongruent
4,19,right,male,2,53,FDr,Fearful,1,382,Direct
4,19,right,male,2,54,NRl,Neutral,1,370,Inongruent
4,19,right,male,2,55,FRi,Fearful,1,420,Inongruent
4,19,right,male,2,56,NLl,Neutral,1,377,Congruent
4,19,right,male,2,57,NRr,Neutral,1,364,Congruent
4,19,right,male,2,58,NDr,Neutral,1,386,Direct
4,19,right,male,2,59,NDl,Neutral,1,533,Direct
4,19,right,male,2,60,NRr,Neutral,1,364,Congruent
4,19,right,male,2,61,FRc,Fearful,1,394,Congruent
4,19,right,male,2,62,FRc,Fearful,1,362,Congruent
4,19,right,male,2,63,NDl,Neutral,1,633,Direct
4,19,right,male,2,64,FLc,Fearful,1,361,Congruent
4,19,right,male,2,65,FLc,Fearful,1,362,Congruent
4,19,right,male,2,66,NDl,Neutral,1,386,Direct
4,19,right,male,2,67,NRl,Neutral,1,427,Inongruent
4,19,right,male,2,68,FRc,Fearful,1,392,Congruent
4,19,right,male,2,69,NDl,Neutral,1,387,Direct
4,19,right,male,2,70,FLc,Fearful,1,415,Congruent
4,19,right,male,2,71,FDl,Fearful,1,397,Direct
4,19,right,male,2,72,NLl,Neutral,1,425,Congruent
4,19,right,male,2,73,FDl,Fearful,1,508,Direct
4,19,right,male,2,74,FLi,Fearful,1,483,Inongruent
4,19,right,male,2,75,NLr,Neutral,1,454,Inongruent
4,19,right,male,2,76,FLc,Fearful,1,489,Congruent
4,19,right,male,2,77,NRr,Neutral,1,350,Congruent
4,19,right,male,2,78,FDr,Fearful,1,343,Direct
4,19,right,male,2,79,NDl,Neutral,1,386,Direct
4,19,right,male,2,80,FDr,Fearful,1,433,Direct
4,19,right,male,2,81,NDr,Neutral,1,362,Direct
4,19,right,male,2,82,NLl,Neutral,1,471,Congruent
4,19,right,male,2,83,NLl,Neutral,1,413,Congruent
4,19,right,male,2,84,FDr,Fearful,1,2582,Direct
4,19,right,male,2,85,FRc,Fearful,1,355,Congruent
4,19,right,male,2,86,FRi,Fearful,1,382,Inongruent
4,19,right,male,2,87,FRi,Fearful,1,423,Inongruent
4,19,right,male,2,88,NLl,Neutral,1,488,Congruent
4,19,right,male,2,89,FDl,Fearful,1,404,Direct
4,19,right,male,2,90,FLc,Fearful,1,472,Congruent
4,19,right,male,2,91,NRr,Neutral,1,476,Congruent
4,19,right,male,2,92,FRc,Fearful,1,418,Congruent
4,19,right,male,2,93,NRl,Neutral,1,453,Inongruent
4,19,right,male,2,94,FRi,Fearful,1,413,Inongruent
4,19,right,male,2,95,FDl,Fearful,1,348,Direct
4,19,right,male,2,96,NRl,Neutral,1,382,Inongruent
4,19,right,male,3,1,FLc,Fearful,1,538,Congruent
4,19,right,male,3,2,FLc,Fearful,1,387,Congruent
4,19,right,male,3,3,FRi,Fearful,1,316,Inongruent
4,19,right,male,3,4,NDr,Neutral,1,385,Direct
4,19,right,male,3,5,FDl,Fearful,1,413,Direct
4,19,right,male,3,6,NRr,Neutral,1,378,Congruent
4,19,right,male,3,7,NDl,Neutral,1,331,Direct
4,19,right,male,3,8,NRr,Neutral,1,356,Congruent
4,19,right,male,3,9,FRc,Fearful,1,353,Congruent
4,19,right,male,3,10,NLl,Neutral,1,411,Congruent
4,19,right,male,3,11,NLr,Neutral,1,274,Inongruent
4,19,right,male,3,12,FRc,Fearful,1,262,Congruent
4,19,right,male,3,13,NLr,Neutral,1,374,Inongruent
4,19,right,male,3,14,FLi,Fearful,1,329,Inongruent
4,19,right,male,3,15,NLr,Neutral,1,382,Inongruent
4,19,right,male,3,16,NDl,Neutral,1,370,Direct
4,19,right,male,3,17,NRr,Neutral,1,346,Congruent
4,19,right,male,3,18,NDl,Neutral,1,355,Direct
4,19,right,male,3,19,NRr,Neutral,1,325,Congruent
4,19,right,male,3,20,NDr,Neutral,1,215,Direct
4,19,right,male,3,21,NLr,Neutral,1,308,Inongruent
4,19,right,male,3,22,NRr,Neutral,1,360,Congruent
4,19,right,male,3,23,FLc,Fearful,1,492,Congruent
4,19,right,male,3,24,FDl,Fearful,1,408,Direct
4,19,right,male,3,25,FRi,Fearful,1,514,Inongruent
4,19,right,male,3,26,NDr,Neutral,1,385,Direct
4,19,right,male,3,27,FRi,Fearful,1,385,Inongruent
4,19,right,male,3,28,FRi,Fearful,1,385,Inongruent
4,19,right,male,3,29,FDl,Fearful,1,366,Direct
4,19,right,male,3,30,FRi,Fearful,1,372,Inongruent
4,19,right,male,3,31,FRc,Fearful,1,399,Congruent
4,19,right,male,3,32,FDl,Fearful,1,384,Direct
4,19,right,male,3,33,FRc,Fearful,1,392,Congruent
4,19,right,male,3,34,FLc,Fearful,1,535,Congruent
4,19,right,male,3,35,FDr,Fearful,1,559,Direct
4,19,right,male,3,36,FLi,Fearful,1,382,Inongruent
4,19,right,male,3,37,NDr,Neutral,1,408,Direct
4,19,right,male,3,38,NRr,Neutral,1,383,Congruent
4,19,right,male,3,39,NLl,Neutral,1,521,Congruent
4,19,right,male,3,40,NDr,Neutral,1,351,Direct
4,19,right,male,3,41,FDr,Fearful,1,322,Direct
4,19,right,male,3,42,NRl,Neutral,1,414,Inongruent
4,19,right,male,3,43,FRc,Fearful,1,341,Congruent
4,19,right,male,3,44,NLl,Neutral,1,402,Congruent
4,19,right,male,3,45,NRr,Neutral,1,334,Congruent
4,19,right,male,3,46,FLi,Fearful,1,418,Inongruent
4,19,right,male,3,47,FDr,Fearful,1,428,Direct
4,19,right,male,3,48,FRc,Fearful,1,413,Congruent
4,19,right,male,3,49,NLl,Neutral,1,418,Congruent
4,19,right,male,3,50,FRc,Fearful,1,479,Congruent
4,19,right,male,3,51,NDr,Neutral,1,417,Direct
4,19,right,male,3,52,FDr,Fearful,1,415,Direct
4,19,right,male,3,53,NRr,Neutral,1,336,Congruent
4,19,right,male,3,54,NLl,Neutral,1,416,Congruent
4,19,right,male,3,55,NLl,Neutral,1,432,Congruent
4,19,right,male,3,56,NDl,Neutral,1,388,Direct
4,19,right,male,3,57,FRi,Fearful,1,377,Inongruent
4,19,right,male,3,58,FLc,Fearful,1,383,Congruent
4,19,right,male,3,59,NDr,Neutral,1,1021,Direct
4,19,right,male,3,60,NLr,Neutral,1,297,Inongruent
4,19,right,male,3,61,FRi,Fearful,1,485,Inongruent
4,19,right,male,3,62,NLl,Neutral,1,394,Congruent
4,19,right,male,3,63,NRl,Neutral,1,371,Inongruent
4,19,right,male,3,64,FLi,Fearful,1,347,Inongruent
4,19,right,male,3,65,FLi,Fearful,1,381,Inongruent
4,19,right,male,3,66,NDl,Neutral,1,404,Direct
4,19,right,male,3,67,NDl,Neutral,1,414,Direct
4,19,right,male,3,68,NLr,Neutral,1,597,Inongruent
4,19,right,male,3,69,FDr,Fearful,1,393,Direct
4,19,right,male,3,70,FLc,Fearful,1,414,Congruent
4,19,right,male,3,71,FDl,Fearful,1,466,Direct
4,19,right,male,3,72,NDr,Neutral,1,316,Direct
4,19,right,male,3,73,NLr,Neutral,1,362,Inongruent
4,19,right,male,3,74,FLi,Fearful,1,379,Inongruent
4,19,right,male,3,75,NDl,Neutral,1,443,Direct
4,19,right,male,3,76,NRl,Neutral,1,413,Inongruent
4,19,right,male,3,77,FRc,Fearful,1,381,Congruent
4,19,right,male,3,78,FLi,Fearful,1,340,Inongruent
4,19,right,male,3,79,FDr,Fearful,1,355,Direct
4,19,right,male,3,80,FLi,Fearful,1,353,Inongruent
4,19,right,male,3,81,NRl,Neutral,1,471,Inongruent
4,19,right,male,3,82,NLl,Neutral,1,369,Congruent
4,19,right,male,3,83,FDr,Fearful,1,333,Direct
4,19,right,male,3,84,FRi,Fearful,1,296,Inongruent
4,19,right,male,3,85,NDl,Neutral,1,461,Direct
4,19,right,male,3,86,NRl,Neutral,1,386,Inongruent
4,19,right,male,3,87,NRl,Neutral,1,476,Inongruent
4,19,right,male,3,88,FDl,Fearful,1,397,Direct
4,19,right,male,3,89,NLr,Neutral,1,466,Inongruent
4,19,right,male,3,90,NRl,Neutral,1,423,Inongruent
4,19,right,male,3,91,FDl,Fearful,1,388,Direct
4,19,right,male,3,92,NRl,Neutral,1,382,Inongruent
4,19,right,male,3,93,FLc,Fearful,1,398,Congruent
4,19,right,male,3,94,FLc,Fearful,1,466,Congruent
4,19,right,male,3,95,FDr,Fearful,1,553,Direct
4,19,right,male,3,96,FDl,Fearful,1,311,Direct
4,19,right,male,4,1,NRl,Neutral,1,373,Inongruent
4,19,right,male,4,2,FLc,Fearful,1,403,Congruent
4,19,right,male,4,3,NRl,Neutral,1,341,Inongruent
4,19,right,male,4,4,NDl,Neutral,1,512,Direct
4,19,right,male,4,5,NLr,Neutral,1,477,Inongruent
4,19,right,male,4,6,FLi,Fearful,1,471,Inongruent
4,19,right,male,4,7,NDr,Neutral,1,387,Direct
4,19,right,male,4,8,FRi,Fearful,1,388,Inongruent
4,19,right,male,4,9,NDr,Neutral,1,352,Direct
4,19,right,male,4,10,NLl,Neutral,1,325,Congruent
4,19,right,male,4,11,FLi,Fearful,1,258,Inongruent
4,19,right,male,4,12,NRl,Neutral,1,368,Inongruent
4,19,right,male,4,13,NRr,Neutral,1,304,Congruent
4,19,right,male,4,14,NDr,Neutral,1,399,Direct
4,19,right,male,4,15,FDl,Fearful,1,393,Direct
4,19,right,male,4,16,FLi,Fearful,1,438,Inongruent
4,19,right,male,4,17,NDl,Neutral,1,362,Direct
4,19,right,male,4,18,FRi,Fearful,1,398,Inongruent
4,19,right,male,4,19,NRr,Neutral,1,402,Congruent
4,19,right,male,4,20,FDr,Fearful,1,379,Direct
4,19,right,male,4,21,FLc,Fearful,1,400,Congruent
4,19,right,male,4,22,FDr,Fearful,1,405,Direct
4,19,right,male,4,23,NDl,Neutral,1,349,Direct
4,19,right,male,4,24,NLl,Neutral,1,418,Congruent
4,19,right,male,4,25,FLc,Fearful,1,363,Congruent
4,19,right,male,4,26,FRi,Fearful,1,366,Inongruent
4,19,right,male,4,27,NLr,Neutral,1,588,Inongruent
4,19,right,male,4,28,FLi,Fearful,1,377,Inongruent
4,19,right,male,4,29,NRr,Neutral,1,334,Congruent
4,19,right,male,4,30,NRr,Neutral,1,379,Congruent
4,19,right,male,4,31,NDr,Neutral,1,354,Direct
4,19,right,male,4,32,FLi,Fearful,1,359,Inongruent
4,19,right,male,4,33,FRc,Fearful,1,367,Congruent
4,19,right,male,4,34,FDl,Fearful,1,331,Direct
4,19,right,male,4,35,NLr,Neutral,1,460,Inongruent
4,19,right,male,4,36,NLl,Neutral,1,367,Congruent
4,19,right,male,4,37,FRc,Fearful,1,844,Congruent
4,19,right,male,4,38,NRl,Neutral,1,478,Inongruent
4,19,right,male,4,39,FDr,Fearful,1,289,Direct
4,19,right,male,4,40,NLl,Neutral,1,355,Congruent
4,19,right,male,4,41,FDl,Fearful,1,334,Direct
4,19,right,male,4,42,NLl,Neutral,1,350,Congruent
4,19,right,male,4,43,NRr,Neutral,1,452,Congruent
4,19,right,male,4,44,NLr,Neutral,1,313,Inongruent
4,19,right,male,4,45,NLl,Neutral,1,374,Congruent
4,19,right,male,4,46,FRc,Fearful,1,343,Congruent
4,19,right,male,4,47,NDl,Neutral,1,281,Direct
4,19,right,male,4,48,NLr,Neutral,1,406,Inongruent
4,19,right,male,4,49,FDl,Fearful,1,295,Direct
4,19,right,male,4,50,NRl,Neutral,1,392,Inongruent
4,19,right,male,4,51,NRr,Neutral,1,349,Congruent
4,19,right,male,4,52,NDr,Neutral,1,381,Direct
4,19,right,male,4,53,NRl,Neutral,1,416,Inongruent
4,19,right,male,4,54,FRc,Fearful,1,405,Congruent
4,19,right,male,4,55,NDr,Neutral,1,407,Direct
4,19,right,male,4,56,FRc,Fearful,1,303,Congruent
4,19,right,male,4,57,FLc,Fearful,1,405,Congruent
4,19,right,male,4,58,NLr,Neutral,1,431,Inongruent
4,19,right,male,4,59,FDr,Fearful,1,378,Direct
4,19,right,male,4,60,FDr,Fearful,1,297,Direct
4,19,right,male,4,61,FLc,Fearful,1,295,Congruent
4,19,right,male,4,62,NDl,Neutral,1,527,Direct
4,19,right,male,4,63,FRi,Fearful,1,503,Inongruent
4,19,right,male,4,64,FLi,Fearful,1,374,Inongruent
4,19,right,male,4,65,NLl,Neutral,1,396,Congruent
4,19,right,male,4,66,NDl,Neutral,1,384,Direct
4,19,right,male,4,67,FRi,Fearful,1,380,Inongruent
4,19,right,male,4,68,NRr,Neutral,1,427,Congruent
4,19,right,male,4,69,FDl,Fearful,1,697,Direct
4,19,right,male,4,70,NDl,Neutral,1,366,Direct
4,19,right,male,4,71,FLc,Fearful,1,411,Congruent
4,19,right,male,4,72,NRr,Neutral,1,331,Congruent
4,19,right,male,4,73,FRi,Fearful,1,255,Inongruent
4,19,right,male,4,74,FLi,Fearful,1,260,Inongruent
4,19,right,male,4,75,FRc,Fearful,1,453,Congruent
4,19,right,male,4,76,FDl,Fearful,1,269,Direct
4,19,right,male,4,77,NLr,Neutral,1,335,Inongruent
4,19,right,male,4,78,FRc,Fearful,1,384,Congruent
4,19,right,male,4,79,NRl,Neutral,1,454,Inongruent
4,19,right,male,4,80,NDl,Neutral,1,406,Direct
4,19,right,male,4,81,FDr,Fearful,1,328,Direct
4,19,right,male,4,82,NRl,Neutral,1,376,Inongruent
4,19,right,male,4,83,NDr,Neutral,1,409,Direct
4,19,right,male,4,84,FDr,Fearful,1,359,Direct
4,19,right,male,4,85,FRi,Fearful,1,409,Inongruent
4,19,right,male,4,86,NDr,Neutral,1,310,Direct
4,19,right,male,4,87,FLc,Fearful,1,368,Congruent
4,19,right,male,4,88,FRc,Fearful,1,458,Congruent
4,19,right,male,4,89,NLr,Neutral,1,404,Inongruent
4,19,right,male,4,90,FLc,Fearful,1,413,Congruent
4,19,right,male,4,91,FDl,Fearful,1,1695,Direct
4,19,right,male,4,92,NLl,Neutral,1,356,Congruent
4,19,right,male,4,93,FDr,Fearful,1,378,Direct
4,19,right,male,4,94,FLi,Fearful,1,367,Inongruent
4,19,right,male,4,95,FDl,Fearful,1,360,Direct
4,19,right,male,4,96,FRi,Fearful,1,630,Inongruent
5,20,right,male,1,1,NLr,Neutral,1,648,Inongruent
5,20,right,male,1,2,NDl,Neutral,1,434,Direct
5,20,right,male,1,3,NLl,Neutral,1,465,Congruent
5,20,right,male,1,4,NRl,Neutral,1,408,Inongruent
5,20,right,male,1,5,FLi,Fearful,1,359,Inongruent
5,20,right,male,1,6,FLi,Fearful,1,429,Inongruent
5,20,right,male,1,7,FDl,Fearful,1,369,Direct
5,20,right,male,1,8,FLc,Fearful,1,377,Congruent
5,20,right,male,1,9,FLi,Fearful,1,332,Inongruent
5,20,right,male,1,10,NLr,Neutral,1,381,Inongruent
5,20,right,male,1,11,FDl,Fearful,1,410,Direct
5,20,right,male,1,12,NLl,Neutral,1,406,Congruent
5,20,right,male,1,13,NDr,Neutral,1,381,Direct
5,20,right,male,1,14,FLc,Fearful,1,355,Congruent
5,20,right,male,1,15,FRi,Fearful,1,375,Inongruent
5,20,right,male,1,16,NLl,Neutral,1,571,Congruent
5,20,right,male,1,17,FRc,Fearful,1,449,Congruent
5,20,right,male,1,18,FDl,Fearful,1,470,Direct
5,20,right,male,1,19,NDl,Neutral,1,436,Direct
5,20,right,male,1,20,NRr,Neutral,1,420,Congruent
5,20,right,male,1,21,NDr,Neutral,1,454,Direct
5,20,right,male,1,22,FLi,Fearful,1,376,Inongruent
5,20,right,male,1,23,NDl,Neutral,1,331,Direct
5,20,right,male,1,24,NDr,Neutral,1,334,Direct
5,20,right,male,1,25,FLi,Fearful,1,356,Inongruent
5,20,right,male,1,26,NRl,Neutral,1,388,Inongruent
5,20,right,male,1,27,FDr,Fearful,1,337,Direct
5,20,right,male,1,28,FLc,Fearful,1,320,Congruent
5,20,right,male,1,29,FDl,Fearful,1,378,Direct
5,20,right,male,1,30,FDr,Fearful,1,325,Direct
5,20,right,male,1,31,NRr,Neutral,1,369,Congruent
5,20,right,male,1,32,FDr,Fearful,1,354,Direct
5,20,right,male,1,33,FLc,Fearful,1,360,Congruent
5,20,right,male,1,34,NDl,Neutral,1,352,Direct
5,20,right,male,1,35,FLi,Fearful,1,323,Inongruent
5,20,right,male,1,36,FRc,Fearful,1,371,Congruent
5,20,right,male,1,37,FDl,Fearful,1,439,Direct
5,20,right,male,1,38,NDr,Neutral,1,233,Direct
5,20,right,male,1,39,NRl,Neutral,1,363,Inongruent
5,20,right,male,1,40,FDr,Fearful,1,294,Direct
5,20,right,male,1,41,FDr,Fearful,1,380,Direct
5,20,right,male,1,42,NRl,Neutral,1,336,Inongruent
5,20,right,male,1,43,NDr,Neutral,1,364,Direct
5,20,right,male,1,44,FDr,Fearful,1,338,Direct
5,20,right,male,1,45,FRc,Fearful,1,444,Congruent
5,20,right,male,1,46,NRl,Neutral,1,244,Inongruent
5,20,right,male,1,47,FLc,Fearful,1,385,Congruent
5,20,right,male,1,48,NRr,Neutral,1,359,Congruent
5,20,right,male,1,49,NDr,Neutral,1,358,Direct
5,20,right,male,1,50,NDl,Neutral,1,259,Direct
5,20,right,male,1,51,NDr,Neutral,1,342,Direct
5,20,right,male,1,52,NDr,Neutral,1,288,Direct
5,20,right,male,1,53,FRc,Fearful,1,352,Congruent
5,20,right,male,1,54,NRr,Neutral,1,338,Congruent
5,20,right,male,1,55,FRc,Fearful,1,367,Congruent
5,20,right,male,1,56,NLl,Neutral,1,403,Congruent
5,20,right,male,1,57,FRi,Fearful,1,344,Inongruent
5,20,right,male,1,58,FRi,Fearful,1,329,Inongruent
5,20,right,male,1,59,NRr,Neutral,1,351,Congruent
5,20,right,male,1,60,FLi,Fearful,1,381,Inongruent
5,20,right,male,1,61,FRi,Fearful,1,267,Inongruent
5,20,right,male,1,62,FDl,Fearful,1,339,Direct
5,20,right,male,1,63,FDl,Fearful,1,344,Direct
5,20,right,male,1,64,NRl,Neutral,1,332,Inongruent
5,20,right,male,1,65,NRr,Neutral,1,328,Congruent
5,20,right,male,1,66,NDl,Neutral,1,286,Direct
5,20,right,male,1,67,NRl,Neutral,1,356,Inongruent
5,20,right,male,1,68,NLr,Neutral,1,278,Inongruent
5,20,right,male,1,69,FRi,Fearful,1,369,Inongruent
5,20,right,male,1,70,FDl,Fearful,1,340,Direct
5,20,right,male,1,71,NLl,Neutral,1,373,Congruent
5,20,right,male,1,72,NDl,Neutral,1,368,Direct
5,20,right,male,1,73,FRc,Fearful,1,355,Congruent
5,20,right,male,1,74,FRi,Fearful,1,411,Inongruent
5,20,right,male,1,75,FLc,Fearful,1,376,Congruent
5,20,right,male,1,76,NRl,Neutral,1,334,Inongruent
5,20,right,male,1,77,NLl,Neutral,1,348,Congruent
5,20,right,male,1,78,NDl,Neutral,1,332,Direct
5,20,right,male,1,79,NLr,Neutral,1,365,Inongruent
5,20,right,male,1,80,NRr,Neutral,1,392,Congruent
5,20,right,male,1,81,NLl,Neutral,1,367,Congruent
5,20,right,male,1,82,FRc,Fearful,1,344,Congruent
5,20,right,male,1,83,FRc,Fearful,1,422,Congruent
5,20,right,male,1,84,FDr,Fearful,1,369,Direct
5,20,right,male,1,85,NLl,Neutral,1,356,Congruent
5,20,right,male,1,86,FLc,Fearful,1,339,Congruent
5,20,right,male,1,87,FDr,Fearful,1,399,Direct
5,20,right,male,1,88,NRr,Neutral,1,362,Congruent
5,20,right,male,1,89,FRi,Fearful,1,420,Inongruent
5,20,right,male,1,90,FLi,Fearful,1,421,Inongruent
5,20,right,male,1,91,NLr,Neutral,1,359,Inongruent
5,20,right,male,1,92,FLc,Fearful,1,411,Congruent
5,20,right,male,1,93,NLr,Neutral,1,327,Inongruent
5,20,right,male,1,94,FRi,Fearful,1,294,Inongruent
5,20,right,male,1,95,NLr,Neutral,1,347,Inongruent
5,20,right,male,1,96,NLr,Neutral,1,329,Inongruent
5,20,right,male,2,1,FRi,Fearful,1,436,Inongruent
5,20,right,male,2,2,FLi,Fearful,1,320,Inongruent
5,20,right,male,2,3,NRl,Neutral,1,323,Inongruent
5,20,right,male,2,4,FRi,Fearful,1,313,Inongruent
5,20,right,male,2,5,FLi,Fearful,1,323,Inongruent
5,20,right,male,2,6,NLl,Neutral,1,320,Congruent
5,20,right,male,2,7,NRr,Neutral,1,283,Congruent
5,20,right,male,2,8,NLr,Neutral,1,342,Inongruent
5,20,right,male,2,9,NRr,Neutral,1,344,Congruent
5,20,right,male,2,10,NLl,Neutral,1,356,Congruent
5,20,right,male,2,11,FDr,Fearful,1,375,Direct
5,20,right,male,2,12,NDr,Neutral,1,307,Direct
5,20,right,male,2,13,NRl,Neutral,1,257,Inongruent
5,20,right,male,2,14,NDr,Neutral,1,309,Direct
5,20,right,male,2,15,FDl,Fearful,1,360,Direct
5,20,right,male,2,16,NRl,Neutral,1,404,Inongruent
5,20,right,male,2,17,FDl,Fearful,1,370,Direct
5,20,right,male,2,18,NRl,Neutral,1,313,Inongruent
5,20,right,male,2,19,NRl,Neutral,1,351,Inongruent
5,20,right,male,2,20,FRc,Fearful,1,321,Congruent
5,20,right,male,2,21,NRr,Neutral,1,340,Congruent
5,20,right,male,2,22,FDr,Fearful,1,317,Direct
5,20,right,male,2,23,NRl,Neutral,1,346,Inongruent
5,20,right,male,2,24,FRc,Fearful,1,361,Congruent
5,20,right,male,2,25,FRi,Fearful,1,317,Inongruent
5,20,right,male,2,26,NLl,Neutral,1,317,Congruent
5,20,right,male,2,27,FLc,Fearful,1,311,Congruent
5,20,right,male,2,28,FDr,Fearful,1,371,Direct
5,20,right,male,2,29,FRi,Fearful,1,308,Inongruent
5,20,right,male,2,30,FRc,Fearful,1,271,Congruent
5,20,right,male,2,31,FDl,Fearful,1,339,Direct
5,20,right,male,2,32,NDl,Neutral,1,380,Direct
5,20,right,male,2,33,FRc,Fearful,1,372,Congruent
5,20,right,male,2,34,NDr,Neutral,1,364,Direct
5,20,right,male,2,35,FDr,Fearful,1,319,Direct
5,20,right,male,2,36,FRi,Fearful,1,343,Inongruent
5,20,right,male,2,37,FLc,Fearful,1,400,Congruent
5,20,right,male,2,38,FLi,Fearful,1,324,Inongruent
5,20,right,male,2,39,FDr,Fearful,1,334,Direct
5,20,right,male,2,40,NRr,Neutral,1,372,Congruent
5,20,right,male,2,41,FRc,Fearful,1,495,Congruent
5,20,right,male,2,42,NLr,Neutral,1,389,Inongruent
5,20,right,male,2,43,FDl,Fearful,1,342,Direct
5,20,right,male,2,44,FRc,Fearful,1,379,Congruent
5,20,right,male,2,45,FLi,Fearful,1,378,Inongruent
5,20,right,male,2,46,FRi,Fearful,1,334,Inongruent
5,20,right,male,2,47,NLr,Neutral,1,354,Inongruent
5,20,right,male,2,48,NLl,Neutral,1,334,Congruent
5,20,right,male,2,49,FRi,Fearful,1,342,Inongruent
5,20,right,male,2,50,NLl,Neutral,1,377,Congruent
5,20,right,male,2,51,NRr,Neutral,1,290,Congruent
5,20,right,male,2,52,FDl,Fearful,1,329,Direct
5,20,right,male,2,53,FDr,Fearful,1,344,Direct
5,20,right,male,2,54,NLl,Neutral,1,328,Congruent
5,20,right,male,2,55,NDl,Neutral,1,373,Direct
5,20,right,male,2,56,NLl,Neutral,1,299,Congruent
5,20,right,male,2,57,NDl,Neutral,1,336,Direct
5,20,right,male,2,58,NDl,Neutral,1,429,Direct
5,20,right,male,2,59,FDr,Fearful,1,218,Direct
5,20,right,male,2,60,FRc,Fearful,1,470,Congruent
5,20,right,male,2,61,NRl,Neutral,1,364,Inongruent
5,20,right,male,2,62,NDr,Neutral,1,391,Direct
5,20,right,male,2,63,FDl,Fearful,1,378,Direct
5,20,right,male,2,64,FLi,Fearful,1,274,Inongruent
5,20,right,male,2,65,FLi,Fearful,1,415,Inongruent
5,20,right,male,2,66,FLc,Fearful,1,425,Congruent
5,20,right,male,2,67,NRr,Neutral,1,408,Congruent
5,20,right,male,2,68,NDl,Neutral,1,374,Direct
5,20,right,male,2,69,NLr,Neutral,1,321,Inongruent
5,20,right,male,2,70,NLr,Neutral,1,312,Inongruent
5,20,right,male,2,71,FLc,Fearful,1,290,Congruent
5,20,right,male,2,72,NDr,Neutral,1,282,Direct
5,20,right,male,2,73,NDl,Neutral,1,495,Direct
5,20,right,male,2,74,FLc,Fearful,1,437,Congruent
5,20,right,male,2,75,NDl,Neutral,1,374,Direct
5,20,right,male,2,76,NLr,Neutral,1,244,Inongruent
5,20,right,male,2,77,NDr,Neutral,1,411,Direct
5,20,right,male,2,78,NLr,Neutral,1,430,Inongruent
5,20,right,male,2,79,FLi,Fearful,1,395,Inongruent
5,20,right,male,2,80,FRi,Fearful,1,356,Inongruent
5,20,right,male,2,81,FLc,Fearful,1,370,Congruent
5,20,right,male,2,82,NRr,Neutral,1,294,Congruent
5,20,right,male,2,83,NDl,Neutral,1,421,Direct
5,20,right,male,2,84,NLl,Neutral,1,369,Congruent
5,20,right,male,2,85,NDr,Neutral,1,393,Direct
5,20,right,male,2,86,NLr,Neutral,1,335,Inongruent
5,20,right,male,2,87,FDl,Fearful,1,328,Direct
5,20,right,male,2,88,NDr,Neutral,1,315,Direct
5,20,right,male,2,89,FDr,Fearful,1,342,Direct
5,20,right,male,2,90,NRl,Neutral,1,360,Inongruent
5,20,right,male,2,91,FDl,Fearful,1,317,Direct
5,20,right,male,2,92,FRc,Fearful,1,391,Congruent
5,20,right,male,2,93,FLc,Fearful,1,408,Congruent
5,20,right,male,2,94,NRr,Neutral,1,296,Congruent
5,20,right,male,2,95,FLc,Fearful,1,413,Congruent
5,20,right,male,2,96,FLi,Fearful,1,338,Inongruent
5,20,right,male,3,1,NDl,Neutral,1,418,Direct
5,20,right,male,3,2,FDr,Fearful,1,349,Direct
5,20,right,male,3,3,FDl,Fearful,1,311,Direct
5,20,right,male,3,4,FDr,Fearful,1,292,Direct
5,20,right,male,3,5,NRr,Neutral,1,356,Congruent
5,20,right,male,3,6,NLl,Neutral,1,353,Congruent
5,20,right,male,3,7,FLi,Fearful,1,292,Inongruent
5,20,right,male,3,8,FLc,Fearful,1,365,Congruent
5,20,right,male,3,9,NRl,Neutral,1,357,Inongruent
5,20,right,male,3,10,NRr,Neutral,1,390,Congruent
5,20,right,male,3,11,FLc,Fearful,1,390,Congruent
5,20,right,male,3,12,FRi,Fearful,1,374,Inongruent
5,20,right,male,3,13,NDr,Neutral,1,380,Direct
5,20,right,male,3,14,FDl,Fearful,1,398,Direct
5,20,right,male,3,15,FLi,Fearful,1,323,Inongruent
5,20,right,male,3,16,FRi,Fearful,1,327,Inongruent
5,20,right,male,3,17,NDr,Neutral,1,379,Direct
5,20,right,male,3,18,NLl,Neutral,1,336,Congruent
5,20,right,male,3,19,FLi,Fearful,1,326,Inongruent
5,20,right,male,3,20,NRr,Neutral,1,352,Congruent
5,20,right,male,3,21,FRc,Fearful,1,406,Congruent
5,20,right,male,3,22,NRl,Neutral,1,451,Inongruent
5,20,right,male,3,23,FRc,Fearful,1,315,Congruent
5,20,right,male,3,24,NDl,Neutral,1,366,Direct
5,20,right,male,3,25,NRr,Neutral,1,291,Congruent
5,20,right,male,3,26,FRc,Fearful,1,409,Congruent
5,20,right,male,3,27,FRc,Fearful,1,384,Congruent
5,20,right,male,3,28,NDl,Neutral,1,375,Direct
5,20,right,male,3,29,FDr,Fearful,1,357,Direct
5,20,right,male,3,30,FLi,Fearful,1,356,Inongruent
5,20,right,male,3,31,FDr,Fearful,1,361,Direct
5,20,right,male,3,32,NRl,Neutral,1,356,Inongruent
5,20,right,male,3,33,NDl,Neutral,1,470,Direct
5,20,right,male,3,34,NDl,Neutral,1,418,Direct
5,20,right,male,3,35,FDl,Fearful,1,487,Direct
5,20,right,male,3,36,NRl,Neutral,1,435,Inongruent
5,20,right,male,3,37,NRl,Neutral,1,392,Inongruent
5,20,right,male,3,38,NRr,Neutral,1,359,Congruent
5,20,right,male,3,39,NLr,Neutral,1,393,Inongruent
5,20,right,male,3,40,FLc,Fearful,1,408,Congruent
5,20,right,male,3,41,FLi,Fearful,1,389,Inongruent
5,20,right,male,3,42,NLr,Neutral,1,369,Inongruent
5,20,right,male,3,43,NLl,Neutral,1,380,Congruent
5,20,right,male,3,44,FDl,Fearful,1,411,Direct
5,20,right,male,3,45,NRl,Neutral,1,363,Inongruent
5,20,right,male,3,46,NDr,Neutral,1,309,Direct
5,20,right,male,3,47,NLr,Neutral,1,371,Inongruent
5,20,right,male,3,48,FDr,Fearful,1,407,Direct
5,20,right,male,3,49,FLc,Fearful,1,311,Congruent
5,20,right,male,3,50,NLl,Neutral,1,350,Congruent
5,20,right,male,3,51,FLc,Fearful,1,380,Congruent
5,20,right,male,3,52,NDr,Neutral,1,283,Direct
5,20,right,male,3,53,FDr,Fearful,1,309,Direct
5,20,right,male,3,54,FRc,Fearful,1,404,Congruent
5,20,right,male,3,55,FRc,Fearful,1,376,Congruent
5,20,right,male,3,56,NDl,Neutral,1,480,Direct
5,20,right,male,3,57,NDr,Neutral,1,351,Direct
5,20,right,male,3,58,NLl,Neutral,1,372,Congruent
5,20,right,male,3,59,FRi,Fearful,1,962,Inongruent
5,20,right,male,3,60,FLi,Fearful,1,365,Inongruent
5,20,right,male,3,61,NLl,Neutral,1,324,Congruent
5,20,right,male,3,62,NDl,Neutral,1,421,Direct
5,20,right,male,3,63,FRc,Fearful,1,337,Congruent
5,20,right,male,3,64,FDr,Fearful,1,334,Direct
5,20,right,male,3,65,FRi,Fearful,1,266,Inongruent
5,20,right,male,3,66,FLi,Fearful,1,335,Inongruent
5,20,right,male,3,67,FLc,Fearful,1,388,Congruent
5,20,right,male,3,68,FRi,Fearful,1,417,Inongruent
5,20,right,male,3,69,NRr,Neutral,1,275,Congruent
5,20,right,male,3,70,FDl,Fearful,1,339,Direct
5,20,right,male,3,71,FDl,Fearful,1,382,Direct
5,20,right,male,3,72,FDr,Fearful,1,249,Direct
5,20,right,male,3,73,NLr,Neutral,1,327,Inongruent
5,20,right,male,3,74,FRi,Fearful,1,373,Inongruent
5,20,right,male,3,75,NDr,Neutral,1,334,Direct
5,20,right,male,3,76,FRc,Fearful,1,405,Congruent
5,20,right,male,3,77,FRi,Fearful,1,357,Inongruent
5,20,right,male,3,78,NRl,Neutral,1,393,Inongruent
5,20,right,male,3,79,FLc,Fearful,1,394,Congruent
5,20,right,male,3,80,FRi,Fearful,1,340,Inongruent
5,20,right,male,3,81,NLr,Neutral,1,355,Inongruent
5,20,right,male,3,82,FDl,Fearful,1,416,Direct
5,20,right,male,3,83,NRr,Neutral,1,310,Congruent
5,20,right,male,3,84,FLc,Fearful,1,303,Congruent
5,20,right,male,3,85,NLr,Neutral,1,368,Inongruent
5,20,right,male,3,86,NLr,Neutral,1,326,Inongruent
5,20,right,male,3,87,NRr,Neutral,1,437,Congruent
5,20,right,male,3,88,NDr,Neutral,1,419,Direct
5,20,right,male,3,89,NLl,Neutral,1,447,Congruent
5,20,right,male,3,90,NDl,Neutral,1,429,Direct
5,20,right,male,3,91,NDr,Neutral,1,400,Direct
5,20,right,male,3,92,FDl,Fearful,1,395,Direct
5,20,right,male,3,93,NLl,Neutral,1,453,Congruent
5,20,right,male,3,94,FLi,Fearful,1,395,Inongruent
5,20,right,male,3,95,NRl,Neutral,1,388,Inongruent
5,20,right,male,3,96,NLr,Neutral,1,349,Inongruent
5,20,right,male,4,1,NDr,Neutral,1,437,Direct
5,20,right,male,4,2,NRl,Neutral,1,362,Inongruent
5,20,right,male,4,3,FLc,Fearful,1,367,Congruent
5,20,right,male,4,4,NRl,Neutral,1,387,Inongruent
5,20,right,male,4,5,FRc,Fearful,1,332,Congruent
5,20,right,male,4,6,FDr,Fearful,1,261,Direct
5,20,right,male,4,7,NLl,Neutral,1,361,Congruent
5,20,right,male,4,8,NLl,Neutral,1,318,Congruent
5,20,right,male,4,9,NRl,Neutral,1,364,Inongruent
5,20,right,male,4,10,FDl,Fearful,1,653,Direct
5,20,right,male,4,11,FRc,Fearful,1,419,Congruent
5,20,right,male,4,12,NRr,Neutral,1,450,Congruent
5,20,right,male,4,13,FLc,Fearful,1,295,Congruent
5,20,right,male,4,14,FRi,Fearful,1,335,Inongruent
5,20,right,male,4,15,NDl,Neutral,1,328,Direct
5,20,right,male,4,16,FRc,Fearful,1,408,Congruent
5,20,right,male,4,17,NRr,Neutral,1,328,Congruent
5,20,right,male,4,18,NDl,Neutral,1,436,Direct
5,20,right,male,4,19,FLi,Fearful,1,1042,Inongruent
5,20,right,male,4,20,NDl,Neutral,1,401,Direct
5,20,right,male,4,21,FRi,Fearful,1,397,Inongruent
5,20,right,male,4,22,FRc,Fearful,1,447,Congruent
5,20,right,male,4,23,FRi,Fearful,1,552,Inongruent
5,20,right,male,4,24,FDl,Fearful,1,402,Direct
5,20,right,male,4,25,NLr,Neutral,1,270,Inongruent
5,20,right,male,4,26,NLl,Neutral,1,450,Congruent
5,20,right,male,4,27,FRi,Fearful,1,438,Inongruent
5,20,right,male,4,28,NRr,Neutral,1,471,Congruent
5,20,right,male,4,29,NDl,Neutral,1,403,Direct
5,20,right,male,4,30,NLl,Neutral,1,413,Congruent
5,20,right,male,4,31,FRc,Fearful,1,381,Congruent
5,20,right,male,4,32,NLl,Neutral,1,343,Congruent
5,20,right,male,4,33,FDl,Fearful,1,383,Direct
5,20,right,male,4,34,FDr,Fearful,1,267,Direct
5,20,right,male,4,35,NDr,Neutral,1,378,Direct
5,20,right,male,4,36,NLr,Neutral,1,377,Inongruent
5,20,right,male,4,37,FLi,Fearful,1,378,Inongruent
5,20,right,male,4,38,NRl,Neutral,1,426,Inongruent
5,20,right,male,4,39,NRr,Neutral,1,312,Congruent
5,20,right,male,4,40,FDl,Fearful,1,378,Direct
5,20,right,male,4,41,NRr,Neutral,1,264,Congruent
5,20,right,male,4,42,FDr,Fearful,1,386,Direct
5,20,right,male,4,43,NDr,Neutral,1,372,Direct
5,20,right,male,4,44,NDl,Neutral,1,410,Direct
5,20,right,male,4,45,FLi,Fearful,1,276,Inongruent
5,20,right,male,4,46,FLc,Fearful,1,402,Congruent
5,20,right,male,4,47,FLc,Fearful,1,441,Congruent
5,20,right,male,4,48,FRi,Fearful,1,486,Inongruent
5,20,right,male,4,49,NRl,Neutral,1,426,Inongruent
5,20,right,male,4,50,NRr,Neutral,1,330,Congruent
5,20,right,male,4,51,FDr,Fearful,1,335,Direct
5,20,right,male,4,52,FDr,Fearful,1,403,Direct
5,20,right,male,4,53,NRl,Neutral,1,425,Inongruent
5,20,right,male,4,54,FRi,Fearful,1,478,Inongruent
5,20,right,male,4,55,FRi,Fearful,1,418,Inongruent
5,20,right,male,4,56,NDl,Neutral,1,433,Direct
5,20,right,male,4,57,NDr,Neutral,1,358,Direct
5,20,right,male,4,58,FLi,Fearful,1,328,Inongruent
5,20,right,male,4,59,NRl,Neutral,1,489,Inongruent
5,20,right,male,4,60,FLi,Fearful,1,340,Inongruent
5,20,right,male,4,61,NDl,Neutral,1,396,Direct
5,20,right,male,4,62,NLl,Neutral,1,524,Congruent
5,20,right,male,4,63,NLr,Neutral,1,356,Inongruent
5,20,right,male,4,64,FDl,Fearful,1,372,Direct
5,20,right,male,4,65,FLc,Fearful,1,468,Congruent
5,20,right,male,4,66,NDl,Neutral,1,449,Direct
5,20,right,male,4,67,NDr,Neutral,1,487,Direct
5,20,right,male,4,68,FDr,Fearful,1,333,Direct
5,20,right,male,4,69,NLr,Neutral,1,397,Inongruent
5,20,right,male,4,70,FRc,Fearful,1,385,Congruent
5,20,right,male,4,71,NRr,Neutral,1,290,Congruent
5,20,right,male,4,72,FDl,Fearful,1,355,Direct
5,20,right,male,4,73,FLi,Fearful,1,376,Inongruent
5,20,right,male,4,74,NDr,Neutral,1,346,Direct
5,20,right,male,4,75,NLr,Neutral,1,405,Inongruent
5,20,right,male,4,76,FLi,Fearful,1,418,Inongruent
5,20,right,male,4,77,NRl,Neutral,1,396,Inongruent
5,20,right,male,4,78,FDr,Fearful,1,354,Direct
5,20,right,male,4,79,NRr,Neutral,1,352,Congruent
5,20,right,male,4,80,NLr,Neutral,1,351,Inongruent
5,20,right,male,4,81,FDr,Fearful,1,294,Direct
5,20,right,male,4,82,NLl,Neutral,1,478,Congruent
5,20,right,male,4,83,FLc,Fearful,1,316,Congruent
5,20,right,male,4,84,FLi,Fearful,1,295,Inongruent
5,20,right,male,4,85,NDr,Neutral,1,356,Direct
5,20,right,male,4,86,FLc,Fearful,1,292,Congruent
5,20,right,male,4,87,FRc,Fearful,1,342,Congruent
5,20,right,male,4,88,FDl,Fearful,1,334,Direct
5,20,right,male,4,89,FRi,Fearful,1,312,Inongruent
5,20,right,male,4,90,FRc,Fearful,1,412,Congruent
5,20,right,male,4,91,NLr,Neutral,1,465,Inongruent
5,20,right,male,4,92,NDr,Neutral,1,409,Direct
5,20,right,male,4,93,FLc,Fearful,1,324,Congruent
5,20,right,male,4,94,FDl,Fearful,1,424,Direct
5,20,right,male,4,95,NLl,Neutral,1,451,Congruent
5,20,right,male,4,96,NLr,Neutral,1,419,Inongruent
6,20,right,male,1,1,FRi,Fearful,1,497,Inongruent
6,20,right,male,1,2,NRl,Neutral,1,432,Inongruent
6,20,right,male,1,3,NLl,Neutral,1,382,Congruent
6,20,right,male,1,4,FRc,Fearful,1,447,Congruent
6,20,right,male,1,5,NRl,Neutral,1,327,Inongruent
6,20,right,male,1,6,FLc,Fearful,1,324,Congruent
6,20,right,male,1,7,NLr,Neutral,1,998,Inongruent
6,20,right,male,1,8,NDl,Neutral,1,416,Direct
6,20,right,male,1,9,FRc,Fearful,1,338,Congruent
6,20,right,male,1,10,FRc,Fearful,1,375,Congruent
6,20,right,male,1,11,FDl,Fearful,1,344,Direct
6,20,right,male,1,12,NDr,Neutral,1,344,Direct
6,20,right,male,1,13,FLc,Fearful,1,308,Congruent
6,20,right,male,1,14,NRr,Neutral,1,375,Congruent
6,20,right,male,1,15,FDl,Fearful,1,336,Direct
6,20,right,male,1,16,NLr,Neutral,1,369,Inongruent
6,20,right,male,1,17,NLl,Neutral,1,317,Congruent
6,20,right,male,1,18,NRl,Neutral,1,293,Inongruent
6,20,right,male,1,19,NRl,Neutral,1,323,Inongruent
6,20,right,male,1,20,NRr,Neutral,1,295,Congruent
6,20,right,male,1,21,NLr,Neutral,1,438,Inongruent
6,20,right,male,1,22,FRi,Fearful,1,330,Inongruent
6,20,right,male,1,23,NDr,Neutral,1,313,Direct
6,20,right,male,1,24,FLc,Fearful,1,660,Congruent
6,20,right,male,1,25,NLl,Neutral,1,359,Congruent
6,20,right,male,1,26,NDr,Neutral,1,293,Direct
6,20,right,male,1,27,NLr,Neutral,1,392,Inongruent
6,20,right,male,1,28,NRr,Neutral,1,359,Congruent
6,20,right,male,1,29,FDl,Fearful,1,346,Direct
6,20,right,male,1,30,NLl,Neutral,1,339,Congruent
6,20,right,male,1,31,FRc,Fearful,1,311,Congruent
6,20,right,male,1,32,NRr,Neutral,1,331,Congruent
6,20,right,male,1,33,NLl,Neutral,1,384,Congruent
6,20,right,male,1,34,FLc,Fearful,1,374,Congruent
6,20,right,male,1,35,NRr,Neutral,1,352,Congruent
6,20,right,male,1,36,FRi,Fearful,1,366,Inongruent
6,20,right,male,1,37,FDr,Fearful,1,349,Direct
6,20,right,male,1,38,FRi,Fearful,1,348,Inongruent
6,20,right,male,1,39,NDr,Neutral,1,258,Direct
6,20,right,male,1,40,FRi,Fearful,1,303,Inongruent
6,20,right,male,1,41,NLr,Neutral,1,325,Inongruent
6,20,right,male,1,42,FDr,Fearful,1,377,Direct
6,20,right,male,1,43,FDl,Fearful,1,324,Direct
6,20,right,male,1,44,FDr,Fearful,1,396,Direct
6,20,right,male,1,45,NDl,Neutral,1,294,Direct
6,20,right,male,1,46,NLr,Neutral,1,310,Inongruent
6,20,right,male,1,47,FDr,Fearful,1,328,Direct
6,20,right,male,1,48,FDl,Fearful,1,397,Direct
6,20,right,male,1,49,NRl,Neutral,1,352,Inongruent
6,20,right,male,1,50,NDl,Neutral,1,365,Direct
6,20,right,male,1,51,NRr,Neutral,1,312,Congruent
6,20,right,male,1,52,FDr,Fearful,1,385,Direct
6,20,right,male,1,53,NDl,Neutral,1,348,Direct
6,20,right,male,1,54,NRl,Neutral,1,354,Inongruent
6,20,right,male,1,55,NRl,Neutral,1,345,Inongruent
6,20,right,male,1,56,NLr,Neutral,1,364,Inongruent
6,20,right,male,1,57,NDr,Neutral,1,365,Direct
6,20,right,male,1,58,FDr,Fearful,1,338,Direct
6,20,right,male,1,59,FDr,Fearful,1,356,Direct
6,20,right,male,1,60,FDl,Fearful,1,335,Direct
6,20,right,male,1,61,FDl,Fearful,1,374,Direct
6,20,right,male,1,62,NLl,Neutral,1,332,Congruent
6,20,right,male,1,63,FDl,Fearful,1,362,Direct
6,20,right,male,1,64,FLi,Fearful,1,335,Inongruent
6,20,right,male,1,65,FLi,Fearful,1,400,Inongruent
6,20,right,male,1,66,FLc,Fearful,1,721,Congruent
6,20,right,male,1,67,FLi,Fearful,1,376,Inongruent
6,20,right,male,1,68,FRc,Fearful,1,370,Congruent
6,20,right,male,1,69,FLc,Fearful,1,622,Congruent
6,20,right,male,1,70,FRi,Fearful,1,407,Inongruent
6,20,right,male,1,71,NDl,Neutral,1,332,Direct
6,20,right,male,1,72,FLi,Fearful,1,366,Inongruent
6,20,right,male,1,73,NRr,Neutral,1,359,Congruent
6,20,right,male,1,74,FRi,Fearful,1,355,Inongruent
6,20,right,male,1,75,NDl,Neutral,1,368,Direct
6,20,right,male,1,76,FLi,Fearful,1,340,Inongruent
6,20,right,male,1,77,NRl,Neutral,1,315,Inongruent
6,20,right,male,1,78,NLl,Neutral,1,417,Congruent
6,20,right,male,1,79,NLr,Neutral,1,347,Inongruent
6,20,right,male,1,80,FRc,Fearful,1,360,Congruent
6,20,right,male,1,81,FLi,Fearful,1,398,Inongruent
6,20,right,male,1,82,NDl,Neutral,1,378,Direct
6,20,right,male,1,83,FLi,Fearful,1,369,Inongruent
6,20,right,male,1,84,NDl,Neutral,1,420,Direct
6,20,right,male,1,85,FRc,Fearful,1,360,Congruent
6,20,right,male,1,86,FLc,Fearful,1,341,Congruent
6,20,right,male,1,87,FLc,Fearful,1,325,Congruent
6,20,right,male,1,88,FRc,Fearful,1,342,Congruent
6,20,right,male,1,89,NDr,Neutral,1,422,Direct
6,20,right,male,1,90,NDr,Neutral,1,371,Direct
6,20,right,male,1,91,NLl,Neutral,1,357,Congruent
6,20,right,male,1,92,FDr,Fearful,1,327,Direct
6,20,right,male,1,93,FRi,Fearful,1,346,Inongruent
6,20,right,male,1,94,FLi,Fearful,1,288,Inongruent
6,20,right,male,1,95,NRr,Neutral,1,344,Congruent
6,20,right,male,1,96,NDr,Neutral,1,375,Direct
6,20,right,male,2,1,FDl,Fearful,1,330,Direct
6,20,right,male,2,2,FRc,Fearful,1,344,Congruent
6,20,right,male,2,3,NRl,Neutral,1,334,Inongruent
6,20,right,male,2,4,FDr,Fearful,1,320,Direct
6,20,right,male,2,5,NLr,Neutral,1,250,Inongruent
6,20,right,male,2,6,FDl,Fearful,1,333,Direct
6,20,right,male,2,7,FRc,Fearful,1,347,Congruent
6,20,right,male,2,8,FRc,Fearful,1,344,Congruent
6,20,right,male,2,9,FLc,Fearful,1,303,Congruent
6,20,right,male,2,10,NDl,Neutral,1,376,Direct
6,20,right,male,2,11,FDr,Fearful,1,329,Direct
6,20,right,male,2,12,NRl,Neutral,1,301,Inongruent
6,20,right,male,2,13,NLr,Neutral,1,298,Inongruent
6,20,right,male,2,14,FDr,Fearful,1,381,Direct
6,20,right,male,2,15,NLr,Neutral,1,273,Inongruent
6,20,right,male,2,16,NLl,Neutral,1,332,Congruent
6,20,right,male,2,17,FRi,Fearful,1,325,Inongruent
6,20,right,male,2,18,FLc,Fearful,1,344,Congruent
6,20,right,male,2,19,NDl,Neutral,1,349,Direct
6,20,right,male,2,20,NDr,Neutral,1,347,Direct
6,20,right,male,2,21,NDl,Neutral,1,325,Direct
6,20,right,male,2,22,NLl,Neutral,1,361,Congruent
6,20,right,male,2,23,FDl,Fearful,1,359,Direct
6,20,right,male,2,24,NRl,Neutral,1,310,Inongruent
6,20,right,male,2,25,FRi,Fearful,1,361,Inongruent
6,20,right,male,2,26,FDr,Fearful,1,406,Direct
6,20,right,male,2,27,NRr,Neutral,1,371,Congruent
6,20,right,male,2,28,FDl,Fearful,1,464,Direct
6,20,right,male,2,29,FLi,Fearful,1,457,Inongruent
6,20,right,male,2,30,FRc,Fearful,1,433,Congruent
6,20,right,male,2,31,FRi,Fearful,1,340,Inongruent
6,20,right,male,2,32,FLc,Fearful,1,348,Congruent
6,20,right,male,2,33,FDr,Fearful,1,344,Direct
6,20,right,male,2,34,NDr,Neutral,1,360,Direct
6,20,right,male,2,35,FRi,Fearful,1,275,Inongruent
6,20,right,male,2,36,NLr,Neutral,1,343,Inongruent
6,20,right,male,2,37,NDr,Neutral,1,341,Direct
6,20,right,male,2,38,NLr,Neutral,1,299,Inongruent
6,20,right,male,2,39,FLc,Fearful,1,313,Congruent
6,20,right,male,2,40,FRi,Fearful,1,268,Inongruent
6,20,right,male,2,41,FDl,Fearful,1,338,Direct
6,20,right,male,2,42,FLi,Fearful,1,291,Inongruent
6,20,right,male,2,43,FRc,Fearful,1,378,Congruent
6,20,right,male,2,44,NDr,Neutral,1,360,Direct
6,20,right,male,2,45,FRi,Fearful,1,353,Inongruent
6,20,right,male,2,46,FLc,Fearful,1,606,Congruent
6,20,right,male,2,47,FDl,Fearful,1,362,Direct
6,20,right,male,2,48,NRl,Neutral,1,305,Inongruent
6,20,right,male,2,49,NRr,Neutral,1,344,Congruent
6,20,right,male,2,50,NRl,Neutral,1,336,Inongruent
6,20,right,male,2,51,FLc,Fearful,1,366,Congruent
6,20,right,male,2,52,FRc,Fearful,1,342,Congruent
6,20,right,male,2,53,FRi,Fearful,1,338,Inongruent
6,20,right,male,2,54,NRr,Neutral,1,393,Congruent
6,20,right,male,2,55,FRi,Fearful,1,319,Inongruent
6,20,right,male,2,56,NDl,Neutral,1,342,Direct
6,20,right,male,2,57,NDr,Neutral,1,336,Direct
6,20,right,male,2,58,NDl,Neutral,1,345,Direct
6,20,right,male,2,59,FDr,Fearful,1,324,Direct
6,20,right,male,2,60,NLl,Neutral,1,306,Congruent
6,20,right,male,2,61,NLr,Neutral,1,363,Inongruent
6,20,right,male,2,62,FLc,Fearful,1,348,Congruent
6,20,right,male,2,63,NRl,Neutral,1,331,Inongruent
6,20,right,male,2,64,NDr,Neutral,1,390,Direct
6,20,right,male,2,65,NRl,Neutral,1,300,Inongruent
6,20,right,male,2,66,NRl,Neutral,1,323,Inongruent
6,20,right,male,2,67,NRr,Neutral,1,426,Congruent
6,20,right,male,2,68,NLr,Neutral,1,386,Inongruent
6,20,right,male,2,69,NLl,Neutral,1,306,Congruent
6,20,right,male,2,70,NDl,Neutral,1,327,Direct
6,20,right,male,2,71,NRr,Neutral,1,299,Congruent
6,20,right,male,2,72,NLr,Neutral,1,364,Inongruent
6,20,right,male,2,73,NLl,Neutral,1,356,Congruent
6,20,right,male,2,74,NDl,Neutral,1,308,Direct
6,20,right,male,2,75,FDl,Fearful,1,314,Direct
6,20,right,male,2,76,NDr,Neutral,1,473,Direct
6,20,right,male,2,77,NRr,Neutral,1,380,Congruent
6,20,right,male,2,78,FLi,Fearful,1,563,Inongruent
6,20,right,male,2,79,NLl,Neutral,1,352,Congruent
6,20,right,male,2,80,NDl,Neutral,1,295,Direct
6,20,right,male,2,81,NLl,Neutral,1,381,Congruent
6,20,right,male,2,82,FLi,Fearful,1,319,Inongruent
6,20,right,male,2,83,FDl,Fearful,1,621,Direct
6,20,right,male,2,84,FLc,Fearful,1,317,Congruent
6,20,right,male,2,85,FLi,Fearful,1,453,Inongruent
6,20,right,male,2,86,FRc,Fearful,1,431,Congruent
6,20,right,male,2,87,NLl,Neutral,1,350,Congruent
6,20,right,male,2,88,NRr,Neutral,1,401,Congruent
6,20,right,male,2,89,FDr,Fearful,1,378,Direct
6,20,right,male,2,90,FRc,Fearful,1,357,Congruent
6,20,right,male,2,91,FLi,Fearful,1,354,Inongruent
6,20,right,male,2,92,NDr,Neutral,1,371,Direct
6,20,right,male,2,93,FLi,Fearful,1,307,Inongruent
6,20,right,male,2,94,NRr,Neutral,1,353,Congruent
6,20,right,male,2,95,FDr,Fearful,1,342,Direct
6,20,right,male,2,96,FLi,Fearful,1,354,Inongruent
6,20,right,male,3,1,FDr,Fearful,1,367,Direct
6,20,right,male,3,2,FDr,Fearful,1,321,Direct
6,20,right,male,3,3,FLc,Fearful,1,352,Congruent
6,20,right,male,3,4,NLl,Neutral,1,333,Congruent
6,20,right,male,3,5,NDl,Neutral,1,328,Direct
6,20,right,male,3,6,NRl,Neutral,1,272,Inongruent
6,20,right,male,3,7,FDr,Fearful,1,330,Direct
6,20,right,male,3,8,NLr,Neutral,1,359,Inongruent
6,20,right,male,3,9,FLi,Fearful,1,295,Inongruent
6,20,right,male,3,10,FLi,Fearful,1,307,Inongruent
6,20,right,male,3,11,NDl,Neutral,1,342,Direct
6,20,right,male,3,12,FDl,Fearful,1,352,Direct
6,20,right,male,3,13,FRi,Fearful,1,297,Inongruent
6,20,right,male,3,14,FLi,Fearful,1,302,Inongruent
6,20,right,male,3,15,FRc,Fearful,1,386,Congruent
6,20,right,male,3,16,FDl,Fearful,1,321,Direct
6,20,right,male,3,17,FRi,Fearful,1,366,Inongruent
6,20,right,male,3,18,FLc,Fearful,1,341,Congruent
6,20,right,male,3,19,NRr,Neutral,1,439,Congruent
6,20,right,male,3,20,FLc,Fearful,1,373,Congruent
6,20,right,male,3,21,FLi,Fearful,1,467,Inongruent
6,20,right,male,3,22,FRi,Fearful,1,387,Inongruent
6,20,right,male,3,23,FRi,Fearful,1,389,Inongruent
6,20,right,male,3,24,FDl,Fearful,1,346,Direct
6,20,right,male,3,25,NDl,Neutral,1,319,Direct
6,20,right,male,3,26,NRr,Neutral,1,406,Congruent
6,20,right,male,3,27,NLl,Neutral,1,352,Congruent
6,20,right,male,3,28,FLc,Fearful,1,326,Congruent
6,20,right,male,3,29,FLc,Fearful,1,340,Congruent
6,20,right,male,3,30,NDr,Neutral,1,409,Direct
6,20,right,male,3,31,NLl,Neutral,1,332,Congruent
6,20,right,male,3,32,FDl,Fearful,1,388,Direct
6,20,right,male,3,33,FDr,Fearful,1,378,Direct
6,20,right,male,3,34,NLr,Neutral,1,400,Inongruent
6,20,right,male,3,35,NDr,Neutral,1,362,Direct
6,20,right,male,3,36,NRl,Neutral,1,331,Inongruent
6,20,right,male,3,37,FDl,Fearful,1,350,Direct
6,20,right,male,3,38,FLi,Fearful,1,376,Inongruent
6,20,right,male,3,39,NLr,Neutral,1,339,Inongruent
6,20,right,male,3,40,NLr,Neutral,1,324,Inongruent
6,20,right,male,3,41,NRl,Neutral,1,424,Inongruent
6,20,right,male,3,42,FRi,Fearful,1,359,Inongruent
6,20,right,male,3,43,FDl,Fearful,1,477,Direct
6,20,right,male,3,44,NRl,Neutral,1,312,Inongruent
6,20,right,male,3,45,FDr,Fearful,1,312,Direct
6,20,right,male,3,46,NDl,Neutral,1,350,Direct
6,20,right,male,3,47,FDl,Fearful,1,369,Direct
6,20,right,male,3,48,FLi,Fearful,1,371,Inongruent
6,20,right,male,3,49,FLc,Fearful,1,618,Congruent
6,20,right,male,3,50,NDr,Neutral,1,334,Direct
6,20,right,male,3,51,NLr,Neutral,1,375,Inongruent
6,20,right,male,3,52,FLi,Fearful,1,381,Inongruent
6,20,right,male,3,53,FDr,Fearful,1,493,Direct
6,20,right,male,3,54,FRc,Fearful,1,422,Congruent
6,20,right,male,3,55,FDr,Fearful,1,460,Direct
6,20,right,male,3,56,NRr,Neutral,1,343,Congruent
6,20,right,male,3,57,NLr,Neutral,1,371,Inongruent
6,20,right,male,3,58,NRr,Neutral,1,314,Congruent
6,20,right,male,3,59,NRl,Neutral,1,413,Inongruent
6,20,right,male,3,60,FRc,Fearful,1,307,Congruent
6,20,right,male,3,61,NDr,Neutral,1,352,Direct
6,20,right,male,3,62,FRc,Fearful,1,322,Congruent
6,20,right,male,3,63,NRr,Neutral,1,286,Congruent
6,20,right,male,3,64,NLl,Neutral,1,361,Congruent
6,20,right,male,3,65,FRi,Fearful,1,325,Inongruent
6,20,right,male,3,66,NLl,Neutral,1,340,Congruent
6,20,right,male,3,67,NRl,Neutral,1,347,Inongruent
6,20,right,male,3,68,FRc,Fearful,1,358,Congruent
6,20,right,male,3,69,FRc,Fearful,1,344,Congruent
6,20,right,male,3,70,FRi,Fearful,1,330,Inongruent
6,20,right,male,3,71,NLr,Neutral,1,306,Inongruent
6,20,right,male,3,72,NDr,Neutral,1,462,Direct
6,20,right,male,3,73,NLl,Neutral,1,353,Congruent
6,20,right,male,3,74,FRc,Fearful,1,410,Congruent
6,20,right,male,3,75,FLi,Fearful,1,282,Inongruent
6,20,right,male,3,76,FDr,Fearful,1,366,Direct
6,20,right,male,3,77,FDl,Fearful,1,367,Direct
6,20,right,male,3,78,NLr,Neutral,1,368,Inongruent
6,20,right,male,3,79,FRi,Fearful,1,330,Inongruent
6,20,right,male,3,80,NRr,Neutral,1,387,Congruent
6,20,right,male,3,81,FRc,Fearful,1,344,Congruent
6,20,right,male,3,82,NDr,Neutral,1,310,Direct
6,20,right,male,3,83,NRl,Neutral,1,431,Inongruent
6,20,right,male,3,84,NDl,Neutral,1,391,Direct
6,20,right,male,3,85,NDl,Neutral,1,341,Direct
6,20,right,male,3,86,NRr,Neutral,1,391,Congruent
6,20,right,male,3,87,NRr,Neutral,1,390,Congruent
6,20,right,male,3,88,NLl,Neutral,1,379,Congruent
6,20,right,male,3,89,NRl,Neutral,1,351,Inongruent
6,20,right,male,3,90,NLl,Neutral,1,354,Congruent
6,20,right,male,3,91,FLc,Fearful,1,378,Congruent
6,20,right,male,3,92,FLc,Fearful,1,361,Congruent
6,20,right,male,3,93,NDr,Neutral,1,510,Direct
6,20,right,male,3,94,NDl,Neutral,1,806,Direct
6,20,right,male,3,95,NDl,Neutral,1,378,Direct
6,20,right,male,3,96,NDr,Neutral,1,428,Direct
6,20,right,male,4,1,NRl,Neutral,1,310,Inongruent
6,20,right,male,4,2,NDr,Neutral,1,315,Direct
6,20,right,male,4,3,FRi,Fearful,1,295,Inongruent
6,20,right,male,4,4,FDr,Fearful,1,290,Direct
6,20,right,male,4,5,FDl,Fearful,1,319,Direct
6,20,right,male,4,6,FRc,Fearful,1,471,Congruent
6,20,right,male,4,7,NRr,Neutral,1,388,Congruent
6,20,right,male,4,8,NLr,Neutral,1,365,Inongruent
6,20,right,male,4,9,FLi,Fearful,1,437,Inongruent
6,20,right,male,4,10,NRl,Neutral,1,317,Inongruent
6,20,right,male,4,11,FLi,Fearful,1,313,Inongruent
6,20,right,male,4,12,NLl,Neutral,1,353,Congruent
6,20,right,male,4,13,NLr,Neutral,1,309,Inongruent
6,20,right,male,4,14,NRr,Neutral,1,301,Congruent
6,20,right,male,4,15,FDl,Fearful,1,365,Direct
6,20,right,male,4,16,FDl,Fearful,1,311,Direct
6,20,right,male,4,17,NRl,Neutral,1,314,Inongruent
6,20,right,male,4,18,NRr,Neutral,1,384,Congruent
6,20,right,male,4,19,NDr,Neutral,1,398,Direct
6,20,right,male,4,20,FRi,Fearful,1,320,Inongruent
6,20,right,male,4,21,FLc,Fearful,1,339,Congruent
6,20,right,male,4,22,FLi,Fearful,1,306,Inongruent
6,20,right,male,4,23,NLl,Neutral,1,344,Congruent
6,20,right,male,4,24,FRc,Fearful,1,313,Congruent
6,20,right,male,4,25,NDl,Neutral,1,342,Direct
6,20,right,male,4,26,FRi,Fearful,1,317,Inongruent
6,20,right,male,4,27,NDr,Neutral,1,326,Direct
6,20,right,male,4,28,FRc,Fearful,1,391,Congruent
6,20,right,male,4,29,NRr,Neutral,1,307,Congruent
6,20,right,male,4,30,NRr,Neutral,1,295,Congruent
6,20,right,male,4,31,NLl,Neutral,1,350,Congruent
6,20,right,male,4,32,NDr,Neutral,1,339,Direct
6,20,right,male,4,33,NDr,Neutral,1,433,Direct
6,20,right,male,4,34,FLi,Fearful,1,326,Inongruent
6,20,right,male,4,35,NLl,Neutral,1,424,Congruent
6,20,right,male,4,36,NLr,Neutral,1,371,Inongruent
6,20,right,male,4,37,NDl,Neutral,1,739,Direct
6,20,right,male,4,38,FDr,Fearful,1,386,Direct
6,20,right,male,4,39,NRr,Neutral,1,385,Congruent
6,20,right,male,4,40,NRl,Neutral,1,327,Inongruent
6,20,right,male,4,41,FLc,Fearful,1,327,Congruent
6,20,right,male,4,42,FRc,Fearful,1,358,Congruent
6,20,right,male,4,43,FRi,Fearful,1,380,Inongruent
6,20,right,male,4,44,NLr,Neutral,1,316,Inongruent
6,20,right,male,4,45,FRi,Fearful,1,307,Inongruent
6,20,right,male,4,46,NDr,Neutral,1,340,Direct
6,20,right,male,4,47,FDr,Fearful,1,328,Direct
6,20,right,male,4,48,NLr,Neutral,1,302,Inongruent
6,20,right,male,4,49,NRl,Neutral,1,326,Inongruent
6,20,right,male,4,50,FLc,Fearful,0,293,Congruent
6,20,right,male,4,51,FDr,Fearful,1,264,Direct
6,20,right,male,4,52,FLi,Fearful,1,355,Inongruent
6,20,right,male,4,53,FLi,Fearful,1,345,Inongruent
6,20,right,male,4,54,FDr,Fearful,1,303,Direct
6,20,right,male,4,55,FDl,Fearful,1,381,Direct
6,20,right,male,4,56,FDl,Fearful,1,356,Direct
6,20,right,male,4,57,NRr,Neutral,1,330,Congruent
6,20,right,male,4,58,FDr,Fearful,1,720,Direct
6,20,right,male,4,59,NRl,Neutral,1,351,Inongruent
6,20,right,male,4,60,FDl,Fearful,1,379,Direct
6,20,right,male,4,61,NLl,Neutral,1,431,Congruent
6,20,right,male,4,62,NRl,Neutral,1,392,Inongruent
6,20,right,male,4,63,FLi,Fearful,1,345,Inongruent
6,20,right,male,4,64,FRi,Fearful,1,340,Inongruent
6,20,right,male,4,65,FDr,Fearful,1,425,Direct
6,20,right,male,4,66,FLc,Fearful,1,499,Congruent
6,20,right,male,4,67,NDl,Neutral,1,408,Direct
6,20,right,male,4,68,FLc,Fearful,1,398,Congruent
6,20,right,male,4,69,NRr,Neutral,1,319,Congruent
6,20,right,male,4,70,NDr,Neutral,1,336,Direct
6,20,right,male,4,71,NLr,Neutral,1,558,Inongruent
6,20,right,male,4,72,NLr,Neutral,1,349,Inongruent
6,20,right,male,4,73,NLl,Neutral,1,388,Congruent
6,20,right,male,4,74,NLl,Neutral,1,339,Congruent
6,20,right,male,4,75,NDl,Neutral,1,330,Direct
6,20,right,male,4,76,FRc,Fearful,1,403,Congruent
6,20,right,male,4,77,FLc,Fearful,1,338,Congruent
6,20,right,male,4,78,FRc,Fearful,1,363,Congruent
6,20,right,male,4,79,NLl,Neutral,1,359,Congruent
6,20,right,male,4,80,FLi,Fearful,1,427,Inongruent
6,20,right,male,4,81,NLr,Neutral,1,309,Inongruent
6,20,right,male,4,82,FLc,Fearful,1,327,Congruent
6,20,right,male,4,83,NDl,Neutral,1,342,Direct
6,20,right,male,4,84,FLc,Fearful,1,359,Congruent
6,20,right,male,4,85,NDl,Neutral,1,346,Direct
6,20,right,male,4,86,FDl,Fearful,1,341,Direct
6,20,right,male,4,87,FDl,Fearful,1,354,Direct
6,20,right,male,4,88,FRi,Fearful,1,348,Inongruent
6,20,right,male,4,89,FRc,Fearful,1,390,Congruent
6,20,right,male,4,90,NDr,Neutral,1,483,Direct
6,20,right,male,4,91,NRl,Neutral,1,347,Inongruent
6,20,right,male,4,92,NDl,Neutral,1,331,Direct
6,20,right,male,4,93,FRc,Fearful,1,336,Congruent
6,20,right,male,4,94,NDl,Neutral,1,329,Direct
6,20,right,male,4,95,FDr,Fearful,1,337,Direct
6,20,right,male,4,96,FRi,Fearful,1,315,Inongruent
7,18,right,female,1,1,NRr,Neutral,1,739,Congruent
7,18,right,female,1,2,NRl,Neutral,1,375,Inongruent
7,18,right,female,1,3,FDr,Fearful,1,381,Direct
7,18,right,female,1,4,FRi,Fearful,1,376,Inongruent
7,18,right,female,1,5,NRr,Neutral,1,409,Congruent
7,18,right,female,1,6,FRi,Fearful,1,338,Inongruent
7,18,right,female,1,7,FDl,Fearful,1,370,Direct
7,18,right,female,1,8,NDr,Neutral,1,377,Direct
7,18,right,female,1,9,NRr,Neutral,1,380,Congruent
7,18,right,female,1,10,NDr,Neutral,1,355,Direct
7,18,right,female,1,11,NRr,Neutral,1,350,Congruent
7,18,right,female,1,12,FLc,Fearful,1,366,Congruent
7,18,right,female,1,13,FLi,Fearful,1,372,Inongruent
7,18,right,female,1,14,FLi,Fearful,1,315,Inongruent
7,18,right,female,1,15,FDr,Fearful,1,301,Direct
7,18,right,female,1,16,NDr,Neutral,1,345,Direct
7,18,right,female,1,17,NDl,Neutral,1,354,Direct
7,18,right,female,1,18,FLc,Fearful,1,376,Congruent
7,18,right,female,1,19,NLl,Neutral,1,339,Congruent
7,18,right,female,1,20,NDr,Neutral,1,383,Direct
7,18,right,female,1,21,FRi,Fearful,1,298,Inongruent
7,18,right,female,1,22,NDr,Neutral,1,289,Direct
7,18,right,female,1,23,FRc,Fearful,1,308,Congruent
7,18,right,female,1,24,NRr,Neutral,1,344,Congruent
7,18,right,female,1,25,NRl,Neutral,1,386,Inongruent
7,18,right,female,1,26,FLi,Fearful,1,337,Inongruent
7,18,right,female,1,27,NLr,Neutral,1,341,Inongruent
7,18,right,female,1,28,NLr,Neutral,1,329,Inongruent
7,18,right,female,1,29,NLr,Neutral,1,320,Inongruent
7,18,right,female,1,30,FRc,Fearful,1,326,Congruent
7,18,right,female,1,31,NRl,Neutral,1,301,Inongruent
7,18,right,female,1,32,NDr,Neutral,1,311,Direct
7,18,right,female,1,33,FDl,Fearful,1,335,Direct
7,18,right,female,1,34,FDr,Fearful,1,313,Direct
7,18,right,female,1,35,NLr,Neutral,1,297,Inongruent
7,18,right,female,1,36,NLr,Neutral,1,282,Inongruent
7,18,right,female,1,37,FDl,Fearful,1,311,Direct
7,18,right,female,1,38,FRi,Fearful,1,368,Inongruent
7,18,right,female,1,39,FLc,Fearful,1,410,Congruent
7,18,right,female,1,40,FDl,Fearful,1,408,Direct
7,18,right,female,1,41,NDl,Neutral,1,364,Direct
7,18,right,female,1,42,NRl,Neutral,1,349,Inongruent
7,18,right,female,1,43,FDr,Fearful,1,389,Direct
7,18,right,female,1,44,FRi,Fearful,1,345,Inongruent
7,18,right,female,1,45,FRi,Fearful,1,373,Inongruent
7,18,right,female,1,46,FRc,Fearful,1,339,Congruent
7,18,right,female,1,47,FDr,Fearful,1,369,Direct
7,18,right,female,1,48,FLc,Fearful,1,350,Congruent
7,18,right,female,1,49,FLi,Fearful,1,293,Inongruent
7,18,right,female,1,50,NDl,Neutral,1,332,Direct
7,18,right,female,1,51,NLr,Neutral,1,301,Inongruent
7,18,right,female,1,52,FDl,Fearful,1,315,Direct
7,18,right,female,1,53,FRc,Fearful,1,297,Congruent
7,18,right,female,1,54,NDl,Neutral,1,331,Direct
7,18,right,female,1,55,NLr,Neutral,1,328,Inongruent
7,18,right,female,1,56,NDl,Neutral,1,287,Direct
7,18,right,female,1,57,NLl,Neutral,0,227,Congruent
7,18,right,female,1,58,NRr,Neutral,1,357,Congruent
7,18,right,female,1,59,NRl,Neutral,1,372,Inongruent
7,18,right,female,1,60,NLl,Neutral,1,461,Congruent
7,18,right,female,1,61,FDr,Fearful,1,347,Direct
7,18,right,female,1,62,FLi,Fearful,1,408,Inongruent
7,18,right,female,1,63,FRc,Fearful,1,464,Congruent
7,18,right,female,1,64,NRl,Neutral,1,367,Inongruent
7,18,right,female,1,65,NDr,Neutral,1,315,Direct
7,18,right,female,1,66,NLr,Neutral,1,385,Inongruent
7,18,right,female,1,67,NRl,Neutral,1,411,Inongruent
7,18,right,female,1,68,FLc,Fearful,1,499,Congruent
7,18,right,female,1,69,FDr,Fearful,1,393,Direct
7,18,right,female,1,70,NDr,Neutral,1,362,Direct
7,18,right,female,1,71,FDr,Fearful,1,303,Direct
7,18,right,female,1,72,NLl,Neutral,1,301,Congruent
7,18,right,female,1,73,FLc,Fearful,1,434,Congruent
7,18,right,female,1,74,NLl,Neutral,1,301,Congruent
7,18,right,female,1,75,NLl,Neutral,1,344,Congruent
7,18,right,female,1,76,NDl,Neutral,1,321,Direct
7,18,right,female,1,77,FLc,Fearful,1,372,Congruent
7,18,right,female,1,78,FLi,Fearful,1,371,Inongruent
7,18,right,female,1,79,FLc,Fearful,1,384,Congruent
7,18,right,female,1,80,FRc,Fearful,1,273,Congruent
7,18,right,female,1,81,FLi,Fearful,1,306,Inongruent
7,18,right,female,1,82,NLl,Neutral,1,359,Congruent
7,18,right,female,1,83,NDl,Neutral,1,328,Direct
7,18,right,female,1,84,NRr,Neutral,1,323,Congruent
7,18,right,female,1,85,NRl,Neutral,1,305,Inongruent
7,18,right,female,1,86,FDl,Fearful,1,355,Direct
7,18,right,female,1,87,NLl,Neutral,1,348,Congruent
7,18,right,female,1,88,NDl,Neutral,1,337,Direct
7,18,right,female,1,89,FRi,Fearful,1,355,Inongruent
7,18,right,female,1,90,FRc,Fearful,1,380,Congruent
7,18,right,female,1,91,FDl,Fearful,1,345,Direct
7,18,right,female,1,92,NRr,Neutral,1,371,Congruent
7,18,right,female,1,93,FLi,Fearful,1,318,Inongruent
7,18,right,female,1,94,FRc,Fearful,1,415,Congruent
7,18,right,female,1,95,FDl,Fearful,1,410,Direct
7,18,right,female,1,96,FRi,Fearful,1,348,Inongruent
7,18,right,female,2,1,NLr,Neutral,1,413,Inongruent
7,18,right,female,2,2,FLi,Fearful,1,370,Inongruent
7,18,right,female,2,3,FDl,Fearful,1,392,Direct
7,18,right,female,2,4,NDl,Neutral,1,393,Direct
7,18,right,female,2,5,FRc,Fearful,1,355,Congruent
7,18,right,female,2,6,NDl,Neutral,1,333,Direct
7,18,right,female,2,7,FDl,Fearful,1,342,Direct
7,18,right,female,2,8,FRi,Fearful,1,338,Inongruent
7,18,right,female,2,9,FLc,Fearful,1,340,Congruent
7,18,right,female,2,10,FLi,Fearful,1,417,Inongruent
7,18,right,female,2,11,NRr,Neutral,1,436,Congruent
7,18,right,female,2,12,NRl,Neutral,1,310,Inongruent
7,18,right,female,2,13,NLl,Neutral,1,304,Congruent
7,18,right,female,2,14,FDr,Fearful,1,332,Direct
7,18,right,female,2,15,NDl,Neutral,1,393,Direct
7,18,right,female,2,16,NLl,Neutral,1,358,Congruent
7,18,right,female,2,17,NDl,Neutral,1,383,Direct
7,18,right,female,2,18,FRc,Fearful,1,359,Congruent
7,18,right,female,2,19,NDl,Neutral,1,355,Direct
7,18,right,female,2,20,NDl,Neutral,1,416,Direct
7,18,right,female,2,21,FDr,Fearful,1,362,Direct
7,18,right,female,2,22,NLl,Neutral,1,355,Congruent
7,18,right,female,2,23,NDl,Neutral,1,367,Direct
7,18,right,female,2,24,FLc,Fearful,1,347,Congruent
7,18,right,female,2,25,NRr,Neutral,1,491,Congruent
7,18,right,female,2,26,FRc,Fearful,1,378,Congruent
7,18,right,female,2,27,NDl,Neutral,1,305,Direct
7,18,right,female,2,28,FDl,Fearful,1,335,Direct
7,18,right,female,2,29,NRl,Neutral,1,368,Inongruent
7,18,right,female,2,30,FDl,Fearful,1,375,Direct
7,18,right,female,2,31,NDr,Neutral,1,299,Direct
7,18,right,female,2,32,NLr,Neutral,1,325,Inongruent
7,18,right,female,2,33,FLi,Fearful,1,356,Inongruent
7,18,right,female,2,34,FLi,Fearful,1,277,Inongruent
7,18,right,female,2,35,FLi,Fearful,1,364,Inongruent
7,18,right,female,2,36,FRc,Fearful,0,297,Congruent
7,18,right,female,2,37,FRc,Fearful,1,366,Congruent
7,18,right,female,2,38,NLl,Neutral,1,336,Congruent
7,18,right,female,2,39,FLi,Fearful,1,295,Inongruent
7,18,right,female,2,40,NLr,Neutral,1,342,Inongruent
7,18,right,female,2,41,NRl,Neutral,1,375,Inongruent
7,18,right,female,2,42,FRi,Fearful,1,682,Inongruent
7,18,right,female,2,43,NRl,Neutral,1,347,Inongruent
7,18,right,female,2,44,NRl,Neutral,1,327,Inongruent
7,18,right,female,2,45,FRc,Fearful,1,358,Congruent
7,18,right,female,2,46,NLl,Neutral,1,341,Congruent
7,18,right,female,2,47,NLr,Neutral,1,344,Inongruent
7,18,right,female,2,48,NRl,Neutral,1,330,Inongruent
7,18,right,female,2,49,FLc,Fearful,1,373,Congruent
7,18,right,female,2,50,FRi,Fearful,1,428,Inongruent
7,18,right,female,2,51,NLl,Neutral,1,475,Congruent
7,18,right,female,2,52,NDr,Neutral,1,318,Direct
7,18,right,female,2,53,FRi,Fearful,1,305,Inongruent
7,18,right,female,2,54,NLr,Neutral,1,323,Inongruent
7,18,right,female,2,55,NDr,Neutral,1,387,Direct
7,18,right,female,2,56,NRr,Neutral,1,327,Congruent
7,18,right,female,2,57,FRi,Fearful,1,286,Inongruent
7,18,right,female,2,58,FLc,Fearful,1,338,Congruent
7,18,right,female,2,59,NLl,Neutral,1,412,Congruent
7,18,right,female,2,60,NDr,Neutral,1,278,Direct
7,18,right,female,2,61,NDr,Neutral,1,381,Direct
7,18,right,female,2,62,FRc,Fearful,1,366,Congruent
7,18,right,female,2,63,NLr,Neutral,1,322,Inongruent
7,18,right,female,2,64,NDr,Neutral,1,363,Direct
7,18,right,female,2,65,FDl,Fearful,1,368,Direct
7,18,right,female,2,66,NRr,Neutral,1,294,Congruent
7,18,right,female,2,67,FLc,Fearful,1,342,Congruent
7,18,right,female,2,68,FLc,Fearful,1,555,Congruent
7,18,right,female,2,69,NRl,Neutral,1,408,Inongruent
7,18,right,female,2,70,FLc,Fearful,1,422,Congruent
7,18,right,female,2,71,NDr,Neutral,1,351,Direct
7,18,right,female,2,72,FDr,Fearful,1,359,Direct
7,18,right,female,2,73,NRr,Neutral,1,393,Congruent
7,18,right,female,2,74,FDl,Fearful,1,508,Direct
7,18,right,female,2,75,NLl,Neutral,1,367,Congruent
7,18,right,female,2,76,NRr,Neutral,1,365,Congruent
7,18,right,female,2,77,NRr,Neutral,1,414,Congruent
7,18,right,female,2,78,FRi,Fearful,1,452,Inongruent
7,18,right,female,2,79,FDr,Fearful,1,406,Direct
7,18,right,female,2,80,FRi,Fearful,1,377,Inongruent
7,18,right,female,2,81,FDr,Fearful,1,391,Direct
7,18,right,female,2,82,FDr,Fearful,1,448,Direct
7,18,right,female,2,83,NLr,Neutral,1,458,Inongruent
7,18,right,female,2,84,FLi,Fearful,1,434,Inongruent
7,18,right,female,2,85,NRr,Neutral,1,332,Congruent
7,18,right,female,2,86,NRl,Neutral,1,356,Inongruent
7,18,right,female,2,87,NDr,Neutral,1,295,Direct
7,18,right,female,2,88,FDl,Fearful,1,358,Direct
7,18,right,female,2,89,FDr,Fearful,1,318,Direct
7,18,right,female,2,90,NLr,Neutral,1,419,Inongruent
7,18,right,female,2,91,FLc,Fearful,1,292,Congruent
7,18,right,female,2,92,FRc,Fearful,1,507,Congruent
7,18,right,female,2,93,FLi,Fearful,1,325,Inongruent
7,18,right,female,2,94,FDr,Fearful,1,331,Direct
7,18,right,female,2,95,FRi,Fearful,1,329,Inongruent
7,18,right,female,2,96,FDl,Fearful,1,296,Direct
7,18,right,female,3,1,NRl,Neutral,1,381,Inongruent
7,18,right,female,3,2,NRr,Neutral,1,345,Congruent
7,18,right,female,3,3,NRl,Neutral,1,316,Inongruent
7,18,right,female,3,4,FRi,Fearful,1,308,Inongruent
7,18,right,female,3,5,FDl,Fearful,1,355,Direct
7,18,right,female,3,6,NLr,Neutral,1,317,Inongruent
7,18,right,female,3,7,NLl,Neutral,1,306,Congruent
7,18,right,female,3,8,FDr,Fearful,1,320,Direct
7,18,right,female,3,9,NLl,Neutral,1,339,Congruent
7,18,right,female,3,10,NDr,Neutral,1,368,Direct
7,18,right,female,3,11,FLi,Fearful,1,416,Inongruent
7,18,right,female,3,12,NRr,Neutral,1,315,Congruent
7,18,right,female,3,13,FRc,Fearful,1,310,Congruent
7,18,right,female,3,14,FDl,Fearful,1,300,Direct
7,18,right,female,3,15,NRl,Neutral,1,360,Inongruent
7,18,right,female,3,16,FLc,Fearful,1,359,Congruent
7,18,right,female,3,17,FLi,Fearful,1,346,Inongruent
7,18,right,female,3,18,FLi,Fearful,1,309,Inongruent
7,18,right,female,3,19,NDr,Neutral,1,343,Direct
7,18,right,female,3,20,NLr,Neutral,1,358,Inongruent
7,18,right,female,3,21,FDr,Fearful,1,342,Direct
7,18,right,female,3,22,FLi,Fearful,1,379,Inongruent
7,18,right,female,3,23,FRc,Fearful,1,364,Congruent
7,18,right,female,3,24,NRr,Neutral,1,352,Congruent
7,18,right,female,3,25,FRc,Fearful,1,369,Congruent
7,18,right,female,3,26,FRi,Fearful,1,413,Inongruent
7,18,right,female,3,27,FDl,Fearful,1,380,Direct
7,18,right,female,3,28,FRc,Fearful,1,435,Congruent
7,18,right,female,3,29,FLc,Fearful,1,342,Congruent
7,18,right,female,3,30,NDr,Neutral,1,299,Direct
7,18,right,female,3,31,NDr,Neutral,1,368,Direct
7,18,right,female,3,32,NDr,Neutral,1,445,Direct
7,18,right,female,3,33,NRl,Neutral,1,318,Inongruent
7,18,right,female,3,34,FDr,Fearful,1,281,Direct
7,18,right,female,3,35,NRl,Neutral,1,348,Inongruent
7,18,right,female,3,36,NLl,Neutral,1,458,Congruent
7,18,right,female,3,37,FDr,Fearful,1,331,Direct
7,18,right,female,3,38,NRr,Neutral,1,366,Congruent
7,18,right,female,3,39,FRc,Fearful,1,335,Congruent
7,18,right,female,3,40,FRi,Fearful,1,315,Inongruent
7,18,right,female,3,41,NLr,Neutral,1,352,Inongruent
7,18,right,female,3,42,FLc,Fearful,1,322,Congruent
7,18,right,female,3,43,FLi,Fearful,1,295,Inongruent
7,18,right,female,3,44,NRr,Neutral,1,300,Congruent
7,18,right,female,3,45,NDr,Neutral,1,326,Direct
7,18,right,female,3,46,FRi,Fearful,1,329,Inongruent
7,18,right,female,3,47,FRc,Fearful,1,439,Congruent
7,18,right,female,3,48,NLr,Neutral,1,349,Inongruent
7,18,right,female,3,49,FLc,Fearful,1,333,Congruent
7,18,right,female,3,50,FRc,Fearful,1,327,Congruent
7,18,right,female,3,51,NRr,Neutral,1,346,Congruent
7,18,right,female,3,52,FDr,Fearful,1,324,Direct
7,18,right,female,3,53,FLi,Fearful,1,350,Inongruent
7,18,right,female,3,54,NLr,Neutral,1,399,Inongruent
7,18,right,female,3,55,NLr,Neutral,1,362,Inongruent
7,18,right,female,3,56,FLc,Fearful,1,341,Congruent
7,18,right,female,3,57,FRi,Fearful,1,391,Inongruent
7,18,right,female,3,58,FDr,Fearful,1,387,Direct
7,18,right,female,3,59,FDl,Fearful,0,418,Direct
7,18,right,female,3,60,NRr,Neutral,1,294,Congruent
7,18,right,female,3,61,NRl,Neutral,1,291,Inongruent
7,18,right,female,3,62,NDl,Neutral,1,362,Direct
7,18,right,female,3,63,FRi,Fearful,1,367,Inongruent
7,18,right,female,3,64,FLi,Fearful,1,384,Inongruent
7,18,right,female,3,65,FRi,Fearful,1,655,Inongruent
7,18,right,female,3,66,NDr,Neutral,1,345,Direct
7,18,right,female,3,67,NLr,Neutral,1,385,Inongruent
7,18,right,female,3,68,FLi,Fearful,1,516,Inongruent
7,18,right,female,3,69,NDl,Neutral,1,324,Direct
7,18,right,female,3,70,FDr,Fearful,1,290,Direct
7,18,right,female,3,71,NLl,Neutral,1,777,Congruent
7,18,right,female,3,72,FDl,Fearful,1,350,Direct
7,18,right,female,3,73,FDl,Fearful,1,338,Direct
7,18,right,female,3,74,NDr,Neutral,1,344,Direct
7,18,right,female,3,75,FRc,Fearful,1,329,Congruent
7,18,right,female,3,76,FRi,Fearful,1,321,Inongruent
7,18,right,female,3,77,FLc,Fearful,1,322,Congruent
7,18,right,female,3,78,NLl,Neutral,1,328,Congruent
7,18,right,female,3,79,NDl,Neutral,1,355,Direct
7,18,right,female,3,80,NLl,Neutral,1,540,Congruent
7,18,right,female,3,81,NLr,Neutral,1,220,Inongruent
7,18,right,female,3,82,NRr,Neutral,1,403,Congruent
7,18,right,female,3,83,NDl,Neutral,1,515,Direct
7,18,right,female,3,84,FLc,Fearful,1,389,Congruent
7,18,right,female,3,85,NDl,Neutral,1,330,Direct
7,18,right,female,3,86,NRl,Neutral,1,381,Inongruent
7,18,right,female,3,87,NRl,Neutral,1,434,Inongruent
7,18,right,female,3,88,NDl,Neutral,1,519,Direct
7,18,right,female,3,89,NLl,Neutral,1,570,Congruent
7,18,right,female,3,90,FDr,Fearful,1,318,Direct
7,18,right,female,3,91,NDl,Neutral,1,342,Direct
7,18,right,female,3,92,FDl,Fearful,1,370,Direct
7,18,right,female,3,93,FLc,Fearful,1,381,Congruent
7,18,right,female,3,94,NDl,Neutral,1,343,Direct
7,18,right,female,3,95,FDl,Fearful,1,328,Direct
7,18,right,female,3,96,NLl,Neutral,1,394,Congruent
7,18,right,female,4,1,NDl,Neutral,1,350,Direct
7,18,right,female,4,2,NLl,Neutral,1,300,Congruent
7,18,right,female,4,3,FRc,Fearful,1,341,Congruent
7,18,right,female,4,4,FRi,Fearful,1,316,Inongruent
7,18,right,female,4,5,NRr,Neutral,1,264,Congruent
7,18,right,female,4,6,FRc,Fearful,1,358,Congruent
7,18,right,female,4,7,NDl,Neutral,1,260,Direct
7,18,right,female,4,8,FRc,Fearful,1,289,Congruent
7,18,right,female,4,9,FDl,Fearful,1,307,Direct
7,18,right,female,4,10,NLr,Neutral,1,242,Inongruent
7,18,right,female,4,11,NRl,Neutral,1,295,Inongruent
7,18,right,female,4,12,FLi,Fearful,1,277,Inongruent
7,18,right,female,4,13,NDr,Neutral,1,285,Direct
7,18,right,female,4,14,FRc,Fearful,1,377,Congruent
7,18,right,female,4,15,FDr,Fearful,1,305,Direct
7,18,right,female,4,16,NRl,Neutral,1,294,Inongruent
7,18,right,female,4,17,NLl,Neutral,1,413,Congruent
7,18,right,female,4,18,FDl,Fearful,1,449,Direct
7,18,right,female,4,19,FLi,Fearful,1,378,Inongruent
7,18,right,female,4,20,FDl,Fearful,1,368,Direct
7,18,right,female,4,21,NRl,Neutral,1,353,Inongruent
7,18,right,female,4,22,FLi,Fearful,1,364,Inongruent
7,18,right,female,4,23,FLc,Fearful,1,497,Congruent
7,18,right,female,4,24,FRi,Fearful,1,400,Inongruent
7,18,right,female,4,25,NLl,Neutral,1,286,Congruent
7,18,right,female,4,26,NDl,Neutral,1,331,Direct
7,18,right,female,4,27,FDr,Fearful,1,901,Direct
7,18,right,female,4,28,FLi,Fearful,1,309,Inongruent
7,18,right,female,4,29,NRr,Neutral,1,318,Congruent
7,18,right,female,4,30,NLl,Neutral,1,291,Congruent
7,18,right,female,4,31,NDl,Neutral,1,307,Direct
7,18,right,female,4,32,FDr,Fearful,1,290,Direct
7,18,right,female,4,33,NDl,Neutral,1,279,Direct
7,18,right,female,4,34,FDl,Fearful,1,404,Direct
7,18,right,female,4,35,NRl,Neutral,1,303,Inongruent
7,18,right,female,4,36,FDl,Fearful,1,398,Direct
7,18,right,female,4,37,NRl,Neutral,1,333,Inongruent
7,18,right,female,4,38,NRl,Neutral,1,346,Inongruent
7,18,right,female,4,39,NRr,Neutral,1,401,Congruent
7,18,right,female,4,40,NDl,Neutral,1,416,Direct
7,18,right,female,4,41,NDr,Neutral,1,314,Direct
7,18,right,female,4,42,FRi,Fearful,1,304,Inongruent
7,18,right,female,4,43,FLc,Fearful,1,342,Congruent
7,18,right,female,4,44,FDr,Fearful,1,335,Direct
7,18,right,female,4,45,FLc,Fearful,1,365,Congruent
7,18,right,female,4,46,FDr,Fearful,1,322,Direct
7,18,right,female,4,47,FRi,Fearful,1,294,Inongruent
7,18,right,female,4,48,NLr,Neutral,1,293,Inongruent
7,18,right,female,4,49,NLr,Neutral,1,349,Inongruent
7,18,right,female,4,50,NDr,Neutral,1,368,Direct
7,18,right,female,4,51,FLc,Fearful,1,562,Congruent
7,18,right,female,4,52,FRc,Fearful,1,343,Congruent
7,18,right,female,4,53,NDr,Neutral,1,393,Direct
7,18,right,female,4,54,NDr,Neutral,1,379,Direct
7,18,right,female,4,55,NLr,Neutral,1,384,Inongruent
7,18,right,female,4,56,FLc,Fearful,1,296,Congruent
7,18,right,female,4,57,NLl,Neutral,1,371,Congruent
7,18,right,female,4,58,FLc,Fearful,1,283,Congruent
7,18,right,female,4,59,FRi,Fearful,1,308,Inongruent
7,18,right,female,4,60,NRr,Neutral,1,401,Congruent
7,18,right,female,4,61,FLc,Fearful,1,244,Congruent
7,18,right,female,4,62,FDl,Fearful,1,289,Direct
7,18,right,female,4,63,FRi,Fearful,1,314,Inongruent
7,18,right,female,4,64,NRr,Neutral,1,451,Congruent
7,18,right,female,4,65,NLl,Neutral,1,302,Congruent
7,18,right,female,4,66,FLi,Fearful,1,309,Inongruent
7,18,right,female,4,67,NRl,Neutral,1,314,Inongruent
7,18,right,female,4,68,NLl,Neutral,1,380,Congruent
7,18,right,female,4,69,NDr,Neutral,1,375,Direct
7,18,right,female,4,70,FDr,Fearful,1,358,Direct
7,18,right,female,4,71,FRc,Fearful,0,220,Congruent
7,18,right,female,4,72,NRr,Neutral,1,309,Congruent
7,18,right,female,4,73,NLr,Neutral,1,381,Inongruent
7,18,right,female,4,74,FRc,Fearful,1,363,Congruent
7,18,right,female,4,75,NRr,Neutral,1,329,Congruent
7,18,right,female,4,76,NRr,Neutral,1,337,Congruent
7,18,right,female,4,77,NLl,Neutral,1,275,Congruent
7,18,right,female,4,78,NLr,Neutral,1,324,Inongruent
7,18,right,female,4,79,FDr,Fearful,1,301,Direct
7,18,right,female,4,80,FDl,Fearful,1,337,Direct
7,18,right,female,4,81,NDl,Neutral,1,719,Direct
7,18,right,female,4,82,FLc,Fearful,1,365,Congruent
7,18,right,female,4,83,FLi,Fearful,1,347,Inongruent
7,18,right,female,4,84,FLi,Fearful,1,325,Inongruent
7,18,right,female,4,85,FRi,Fearful,1,351,Inongruent
7,18,right,female,4,86,FDr,Fearful,1,303,Direct
7,18,right,female,4,87,FLi,Fearful,1,305,Inongruent
7,18,right,female,4,88,FRi,Fearful,1,323,Inongruent
7,18,right,female,4,89,NRl,Neutral,1,329,Inongruent
7,18,right,female,4,90,NDl,Neutral,1,375,Direct
7,18,right,female,4,91,NDr,Neutral,1,339,Direct
7,18,right,female,4,92,NDr,Neutral,1,329,Direct
7,18,right,female,4,93,FDl,Fearful,1,359,Direct
7,18,right,female,4,94,NLr,Neutral,1,325,Inongruent
7,18,right,female,4,95,NLr,Neutral,1,335,Inongruent
7,18,right,female,4,96,FRc,Fearful,1,378,Congruent
8,20,right,male,1,1,NLl,Neutral,1,683,Congruent
8,20,right,male,1,2,NDr,Neutral,1,380,Direct
8,20,right,male,1,3,NDl,Neutral,1,408,Direct
8,20,right,male,1,4,FRc,Fearful,1,359,Congruent
8,20,right,male,1,5,NDl,Neutral,1,370,Direct
8,20,right,male,1,6,NLr,Neutral,1,283,Inongruent
8,20,right,male,1,7,NLr,Neutral,1,378,Inongruent
8,20,right,male,1,8,FRc,Fearful,1,401,Congruent
8,20,right,male,1,9,NRr,Neutral,1,342,Congruent
8,20,right,male,1,10,FDr,Fearful,1,337,Direct
8,20,right,male,1,11,NRl,Neutral,1,321,Inongruent
8,20,right,male,1,12,NDr,Neutral,1,357,Direct
8,20,right,male,1,13,FRi,Fearful,1,285,Inongruent
8,20,right,male,1,14,FRc,Fearful,1,320,Congruent
8,20,right,male,1,15,FDl,Fearful,1,300,Direct
8,20,right,male,1,16,NLr,Neutral,1,282,Inongruent
8,20,right,male,1,17,NDl,Neutral,1,286,Direct
8,20,right,male,1,18,FDl,Fearful,1,351,Direct
8,20,right,male,1,19,NDr,Neutral,1,308,Direct
8,20,right,male,1,20,NLr,Neutral,1,332,Inongruent
8,20,right,male,1,21,NDr,Neutral,1,314,Direct
8,20,right,male,1,22,NRl,Neutral,1,310,Inongruent
8,20,right,male,1,23,FLi,Fearful,1,266,Inongruent
8,20,right,male,1,24,NDl,Neutral,1,317,Direct
8,20,right,male,1,25,FDl,Fearful,1,340,Direct
8,20,right,male,1,26,FLc,Fearful,1,368,Congruent
8,20,right,male,1,27,NDr,Neutral,1,286,Direct
8,20,right,male,1,28,FRi,Fearful,1,308,Inongruent
8,20,right,male,1,29,FDr,Fearful,1,347,Direct
8,20,right,male,1,30,NDl,Neutral,1,314,Direct
8,20,right,male,1,31,NLl,Neutral,1,363,Congruent
8,20,right,male,1,32,NRl,Neutral,1,304,Inongruent
8,20,right,male,1,33,FLc,Fearful,1,357,Congruent
8,20,right,male,1,34,NLr,Neutral,1,312,Inongruent
8,20,right,male,1,35,FLi,Fearful,1,302,Inongruent
8,20,right,male,1,36,NRl,Neutral,1,249,Inongruent
8,20,right,male,1,37,FRc,Fearful,1,290,Congruent
8,20,right,male,1,38,NRr,Neutral,1,297,Congruent
8,20,right,male,1,39,FRc,Fearful,0,301,Congruent
8,20,right,male,1,40,FDr,Fearful,1,296,Direct
8,20,right,male,1,41,NRr,Neutral,1,333,Congruent
8,20,right,male,1,42,NRr,Neutral,1,374,Congruent
8,20,right,male,1,43,FLc,Fearful,1,333,Congruent
8,20,right,male,1,44,FDr,Fearful,1,296,Direct
8,20,right,male,1,45,FRc,Fearful,1,400,Congruent
8,20,right,male,1,46,FLi,Fearful,1,316,Inongruent
8,20,right,male,1,47,FDr,Fearful,1,325,Direct
8,20,right,male,1,48,FRi,Fearful,1,320,Inongruent
8,20,right,male,1,49,NRr,Neutral,1,366,Congruent
8,20,right,male,1,50,FLc,Fearful,1,374,Congruent
8,20,right,male,1,51,NLl,Neutral,1,402,Congruent
8,20,right,male,1,52,FDl,Fearful,1,346,Direct
8,20,right,male,1,53,FDr,Fearful,1,312,Direct
8,20,right,male,1,54,NLl,Neutral,1,323,Congruent
8,20,right,male,1,55,FRi,Fearful,1,291,Inongruent
8,20,right,male,1,56,FRi,Fearful,1,324,Inongruent
8,20,right,male,1,57,NRl,Neutral,1,328,Inongruent
8,20,right,male,1,58,FRi,Fearful,1,311,Inongruent
8,20,right,male,1,59,NLl,Neutral,1,412,Congruent
8,20,right,male,1,60,NDr,Neutral,1,332,Direct
8,20,right,male,1,61,FLc,Fearful,1,314,Congruent
8,20,right,male,1,62,NRl,Neutral,1,307,Inongruent
8,20,right,male,1,63,NLr,Neutral,1,329,Inongruent
8,20,right,male,1,64,NLl,Neutral,1,373,Congruent
8,20,right,male,1,65,NDr,Neutral,1,361,Direct
8,20,right,male,1,66,NLl,Neutral,1,352,Congruent
8,20,right,male,1,67,FLi,Fearful,1,328,Inongruent
8,20,right,male,1,68,FDl,Fearful,1,269,Direct
8,20,right,male,1,69,FLi,Fearful,1,282,Inongruent
8,20,right,male,1,70,NLr,Neutral,1,337,Inongruent
8,20,right,male,1,71,NDl,Neutral,1,309,Direct
8,20,right,male,1,72,NRr,Neutral,1,363,Congruent
8,20,right,male,1,73,FRi,Fearful,1,291,Inongruent
8,20,right,male,1,74,FLc,Fearful,1,307,Congruent
8,20,right,male,1,75,FDl,Fearful,0,303,Direct
8,20,right,male,1,76,FDr,Fearful,1,380,Direct
8,20,right,male,1,77,NLr,Neutral,1,371,Inongruent
8,20,right,male,1,78,FRi,Fearful,1,318,Inongruent
8,20,right,male,1,79,NLl,Neutral,1,357,Congruent
8,20,right,male,1,80,FRc,Fearful,1,395,Congruent
8,20,right,male,1,81,FDl,Fearful,1,331,Direct
8,20,right,male,1,82,FLi,Fearful,1,308,Inongruent
8,20,right,male,1,83,NRl,Neutral,1,282,Inongruent
8,20,right,male,1,84,NDl,Neutral,1,352,Direct
8,20,right,male,1,85,NDl,Neutral,1,348,Direct
8,20,right,male,1,86,FRc,Fearful,1,311,Congruent
8,20,right,male,1,87,NRr,Neutral,1,358,Congruent
8,20,right,male,1,88,NRl,Neutral,1,328,Inongruent
8,20,right,male,1,89,FDr,Fearful,1,330,Direct
8,20,right,male,1,90,NRr,Neutral,1,293,Congruent
8,20,right,male,1,91,FLi,Fearful,1,309,Inongruent
8,20,right,male,1,92,FLc,Fearful,1,284,Congruent
8,20,right,male,1,93,FLi,Fearful,1,302,Inongruent
8,20,right,male,1,94,NDr,Neutral,1,344,Direct
8,20,right,male,1,95,FLc,Fearful,1,335,Congruent
8,20,right,male,1,96,FDl,Fearful,1,409,Direct
8,20,right,male,2,1,FRi,Fearful,1,404,Inongruent
8,20,right,male,2,2,FLi,Fearful,1,337,Inongruent
8,20,right,male,2,3,FDl,Fearful,1,362,Direct
8,20,right,male,2,4,NRl,Neutral,1,361,Inongruent
8,20,right,male,2,5,NRr,Neutral,1,309,Congruent
8,20,right,male,2,6,NLl,Neutral,1,383,Congruent
8,20,right,male,2,7,NRl,Neutral,1,305,Inongruent
8,20,right,male,2,8,FLi,Fearful,1,327,Inongruent
8,20,right,male,2,9,NDr,Neutral,1,320,Direct
8,20,right,male,2,10,FDr,Fearful,1,314,Direct
8,20,right,male,2,11,NLr,Neutral,1,381,Inongruent
8,20,right,male,2,12,NDr,Neutral,1,388,Direct
8,20,right,male,2,13,NRl,Neutral,1,294,Inongruent
8,20,right,male,2,14,NLl,Neutral,1,410,Congruent
8,20,right,male,2,15,FRc,Fearful,1,314,Congruent
8,20,right,male,2,16,NDl,Neutral,1,316,Direct
8,20,right,male,2,17,FDl,Fearful,1,339,Direct
8,20,right,male,2,18,NRr,Neutral,1,354,Congruent
8,20,right,male,2,19,FDl,Fearful,1,330,Direct
8,20,right,male,2,20,NRl,Neutral,1,318,Inongruent
8,20,right,male,2,21,NLr,Neutral,1,259,Inongruent
8,20,right,male,2,22,FLc,Fearful,1,427,Congruent
8,20,right,male,2,23,NRl,Neutral,1,292,Inongruent
8,20,right,male,2,24,FLc,Fearful,1,343,Congruent
8,20,right,male,2,25,FRi,Fearful,1,423,Inongruent
8,20,right,male,2,26,FRc,Fearful,1,362,Congruent
8,20,right,male,2,27,FDr,Fearful,1,322,Direct
8,20,right,male,2,28,FRi,Fearful,1,343,Inongruent
8,20,right,male,2,29,NLl,Neutral,1,345,Congruent
8,20,right,male,2,30,FDr,Fearful,1,327,Direct
8,20,right,male,2,31,NLl,Neutral,1,321,Congruent
8,20,right,male,2,32,NDr,Neutral,1,300,Direct
8,20,right,male,2,33,FLi,Fearful,1,331,Inongruent
8,20,right,male,2,34,NDl,Neutral,1,317,Direct
8,20,right,male,2,35,NDr,Neutral,1,322,Direct
8,20,right,male,2,36,NRr,Neutral,1,336,Congruent
8,20,right,male,2,37,FLc,Fearful,1,341,Congruent
8,20,right,male,2,38,NRr,Neutral,1,305,Congruent
8,20,right,male,2,39,FRc,Fearful,1,338,Congruent
8,20,right,male,2,40,FLc,Fearful,1,360,Congruent
8,20,right,male,2,41,NLr,Neutral,1,321,Inongruent
8,20,right,male,2,42,NRr,Neutral,1,601,Congruent
8,20,right,male,2,43,FDr,Fearful,1,366,Direct
8,20,right,male,2,44,NRr,Neutral,1,263,Congruent
8,20,right,male,2,45,NDl,Neutral,1,296,Direct
8,20,right,male,2,46,FDr,Fearful,1,252,Direct
8,20,right,male,2,47,FDl,Fearful,1,309,Direct
8,20,right,male,2,48,NDr,Neutral,1,283,Direct
8,20,right,male,2,49,FRi,Fearful,1,300,Inongruent
8,20,right,male,2,50,FLc,Fearful,1,330,Congruent
8,20,right,male,2,51,NLl,Neutral,1,294,Congruent
8,20,right,male,2,52,NDr,Neutral,1,355,Direct
8,20,right,male,2,53,NDl,Neutral,1,320,Direct
8,20,right,male,2,54,NLr,Neutral,1,277,Inongruent
8,20,right,male,2,55,FRc,Fearful,1,358,Congruent
8,20,right,male,2,56,FDr,Fearful,1,372,Direct
8,20,right,male,2,57,FLc,Fearful,1,356,Congruent
8,20,right,male,2,58,FDr,Fearful,1,280,Direct
8,20,right,male,2,59,NRl,Neutral,1,291,Inongruent
8,20,right,male,2,60,FRi,Fearful,1,295,Inongruent
8,20,right,male,2,61,FLi,Fearful,1,342,Inongruent
8,20,right,male,2,62,FDl,Fearful,1,357,Direct
8,20,right,male,2,63,FRc,Fearful,1,304,Congruent
8,20,right,male,2,64,NLr,Neutral,1,318,Inongruent
8,20,right,male,2,65,NRl,Neutral,1,321,Inongruent
8,20,right,male,2,66,FRi,Fearful,1,409,Inongruent
8,20,right,male,2,67,FLi,Fearful,1,347,Inongruent
8,20,right,male,2,68,NDl,Neutral,1,355,Direct
8,20,right,male,2,69,FDl,Fearful,1,325,Direct
8,20,right,male,2,70,FLc,Fearful,1,320,Congruent
8,20,right,male,2,71,NLr,Neutral,1,310,Inongruent
8,20,right,male,2,72,NDl,Neutral,1,359,Direct
8,20,right,male,2,73,NDr,Neutral,1,287,Direct
8,20,right,male,2,74,FLc,Fearful,1,307,Congruent
8,20,right,male,2,75,FRc,Fearful,1,312,Congruent
8,20,right,male,2,76,NLr,Neutral,1,313,Inongruent
8,20,right,male,2,77,NRr,Neutral,0,259,Congruent
8,20,right,male,2,78,NDr,Neutral,1,338,Direct
8,20,right,male,2,79,FRc,Fearful,1,398,Congruent
8,20,right,male,2,80,FRi,Fearful,1,316,Inongruent
8,20,right,male,2,81,FLi,Fearful,1,280,Inongruent
8,20,right,male,2,82,NLl,Neutral,1,335,Congruent
8,20,right,male,2,83,FLi,Fearful,1,287,Inongruent
8,20,right,male,2,84,FDr,Fearful,1,360,Direct
8,20,right,male,2,85,FRc,Fearful,1,369,Congruent
8,20,right,male,2,86,NLl,Neutral,1,315,Congruent
8,20,right,male,2,87,NRl,Neutral,1,394,Inongruent
8,20,right,male,2,88,FRi,Fearful,1,573,Inongruent
8,20,right,male,2,89,FLi,Fearful,1,287,Inongruent
8,20,right,male,2,90,NRr,Neutral,1,355,Congruent
8,20,right,male,2,91,NLl,Neutral,1,346,Congruent
8,20,right,male,2,92,NLr,Neutral,1,290,Inongruent
8,20,right,male,2,93,FDl,Fearful,1,365,Direct
8,20,right,male,2,94,FDl,Fearful,1,366,Direct
8,20,right,male,2,95,NDl,Neutral,1,327,Direct
8,20,right,male,2,96,NDl,Neutral,1,348,Direct
8,20,right,male,3,1,FRi,Fearful,1,413,Inongruent
8,20,right,male,3,2,FDl,Fearful,1,346,Direct
8,20,right,male,3,3,FDr,Fearful,1,390,Direct
8,20,right,male,3,4,FDl,Fearful,1,306,Direct
8,20,right,male,3,5,NRl,Neutral,1,258,Inongruent
8,20,right,male,3,6,FRc,Fearful,1,317,Congruent
8,20,right,male,3,7,NRl,Neutral,1,275,Inongruent
8,20,right,male,3,8,NRr,Neutral,1,305,Congruent
8,20,right,male,3,9,NDl,Neutral,1,314,Direct
8,20,right,male,3,10,FLc,Fearful,1,407,Congruent
8,20,right,male,3,11,FLi,Fearful,1,274,Inongruent
8,20,right,male,3,12,FDr,Fearful,1,359,Direct
8,20,right,male,3,13,NDl,Neutral,1,350,Direct
8,20,right,male,3,14,NLr,Neutral,1,338,Inongruent
8,20,right,male,3,15,FRc,Fearful,1,373,Congruent
8,20,right,male,3,16,FLc,Fearful,1,302,Congruent
8,20,right,male,3,17,NDl,Neutral,1,323,Direct
8,20,right,male,3,18,NLl,Neutral,1,405,Congruent
8,20,right,male,3,19,FRc,Fearful,1,319,Congruent
8,20,right,male,3,20,FLi,Fearful,1,238,Inongruent
8,20,right,male,3,21,FRc,Fearful,1,359,Congruent
8,20,right,male,3,22,FDl,Fearful,1,296,Direct
8,20,right,male,3,23,NRl,Neutral,1,300,Inongruent
8,20,right,male,3,24,FRc,Fearful,1,420,Congruent
8,20,right,male,3,25,NRl,Neutral,1,341,Inongruent
8,20,right,male,3,26,FRi,Fearful,1,293,Inongruent
8,20,right,male,3,27,FRi,Fearful,1,272,Inongruent
8,20,right,male,3,28,NLr,Neutral,1,367,Inongruent
8,20,right,male,3,29,NRr,Neutral,1,372,Congruent
8,20,right,male,3,30,NDr,Neutral,1,433,Direct
8,20,right,male,3,31,NRl,Neutral,1,305,Inongruent
8,20,right,male,3,32,NLr,Neutral,1,266,Inongruent
8,20,right,male,3,33,FLc,Fearful,1,354,Congruent
8,20,right,male,3,34,FDr,Fearful,1,313,Direct
8,20,right,male,3,35,NDl,Neutral,1,295,Direct
8,20,right,male,3,36,NLr,Neutral,1,350,Inongruent
8,20,right,male,3,37,NRl,Neutral,1,319,Inongruent
8,20,right,male,3,38,NLl,Neutral,1,423,Congruent
8,20,right,male,3,39,FRi,Fearful,1,308,Inongruent
8,20,right,male,3,40,FDl,Fearful,1,695,Direct
8,20,right,male,3,41,FDl,Fearful,1,318,Direct
8,20,right,male,3,42,FDr,Fearful,1,332,Direct
8,20,right,male,3,43,FLi,Fearful,1,369,Inongruent
8,20,right,male,3,44,FLi,Fearful,1,291,Inongruent
8,20,right,male,3,45,FRc,Fearful,1,532,Congruent
8,20,right,male,3,46,NRr,Neutral,1,328,Congruent
8,20,right,male,3,47,NDl,Neutral,1,344,Direct
8,20,right,male,3,48,NLr,Neutral,1,264,Inongruent
8,20,right,male,3,49,NRr,Neutral,1,316,Congruent
8,20,right,male,3,50,FLc,Fearful,1,325,Congruent
8,20,right,male,3,51,NRr,Neutral,1,284,Congruent
8,20,right,male,3,52,NLl,Neutral,1,310,Congruent
8,20,right,male,3,53,NRl,Neutral,1,296,Inongruent
8,20,right,male,3,54,FLi,Fearful,1,239,Inongruent
8,20,right,male,3,55,FRi,Fearful,1,252,Inongruent
8,20,right,male,3,56,NDr,Neutral,1,269,Direct
8,20,right,male,3,57,NDl,Neutral,1,311,Direct
8,20,right,male,3,58,NDr,Neutral,1,243,Direct
8,20,right,male,3,59,FLc,Fearful,1,347,Congruent
8,20,right,male,3,60,NLl,Neutral,0,226,Congruent
8,20,right,male,3,61,FRi,Fearful,1,321,Inongruent
8,20,right,male,3,62,NDr,Neutral,1,378,Direct
8,20,right,male,3,63,FLc,Fearful,1,270,Congruent
8,20,right,male,3,64,FLi,Fearful,1,235,Inongruent
8,20,right,male,3,65,FLi,Fearful,1,339,Inongruent
8,20,right,male,3,66,FRi,Fearful,1,279,Inongruent
8,20,right,male,3,67,NDl,Neutral,1,336,Direct
8,20,right,male,3,68,FDr,Fearful,1,311,Direct
8,20,right,male,3,69,FDl,Fearful,1,312,Direct
8,20,right,male,3,70,FLi,Fearful,1,281,Inongruent
8,20,right,male,3,71,NRr,Neutral,1,332,Congruent
8,20,right,male,3,72,FRi,Fearful,1,293,Inongruent
8,20,right,male,3,73,FDl,Fearful,1,325,Direct
8,20,right,male,3,74,NDr,Neutral,1,274,Direct
8,20,right,male,3,75,NLr,Neutral,1,547,Inongruent
8,20,right,male,3,76,NRr,Neutral,1,280,Congruent
8,20,right,male,3,77,NLl,Neutral,1,282,Congruent
8,20,right,male,3,78,NLr,Neutral,1,284,Inongruent
8,20,right,male,3,79,FRc,Fearful,1,275,Congruent
8,20,right,male,3,80,NLl,Neutral,1,355,Congruent
8,20,right,male,3,81,NDr,Neutral,1,275,Direct
8,20,right,male,3,82,NDr,Neutral,1,307,Direct
8,20,right,male,3,83,FRc,Fearful,1,320,Congruent
8,20,right,male,3,84,FDr,Fearful,1,295,Direct
8,20,right,male,3,85,NRl,Neutral,1,344,Inongruent
8,20,right,male,3,86,NDl,Neutral,1,353,Direct
8,20,right,male,3,87,FDl,Fearful,1,310,Direct
8,20,right,male,3,88,NRr,Neutral,1,371,Congruent
8,20,right,male,3,89,FDr,Fearful,0,295,Direct
8,20,right,male,3,90,FLc,Fearful,1,418,Congruent
8,20,right,male,3,91,FLc,Fearful,1,410,Congruent
8,20,right,male,3,92,NLl,Neutral,1,334,Congruent
8,20,right,male,3,93,NLr,Neutral,1,348,Inongruent
8,20,right,male,3,94,NDr,Neutral,1,315,Direct
8,20,right,male,3,95,FDr,Fearful,1,277,Direct
8,20,right,male,3,96,NLl,Neutral,1,308,Congruent
8,20,right,male,4,1,NLl,Neutral,1,355,Congruent
8,20,right,male,4,2,NRr,Neutral,1,274,Congruent
8,20,right,male,4,3,FRi,Fearful,1,265,Inongruent
8,20,right,male,4,4,NLl,Neutral,1,358,Congruent
8,20,right,male,4,5,FLi,Fearful,1,265,Inongruent
8,20,right,male,4,6,FRc,Fearful,1,354,Congruent
8,20,right,male,4,7,NLl,Neutral,1,317,Congruent
8,20,right,male,4,8,FRi,Fearful,1,280,Inongruent
8,20,right,male,4,9,FDl,Fearful,1,400,Direct
8,20,right,male,4,10,FRc,Fearful,1,396,Congruent
8,20,right,male,4,11,FLi,Fearful,1,285,Inongruent
8,20,right,male,4,12,FLi,Fearful,1,273,Inongruent
8,20,right,male,4,13,NRr,Neutral,1,341,Congruent
8,20,right,male,4,14,NDr,Neutral,1,348,Direct
8,20,right,male,4,15,NDl,Neutral,1,387,Direct
8,20,right,male,4,16,NRl,Neutral,1,311,Inongruent
8,20,right,male,4,17,NLl,Neutral,1,330,Congruent
8,20,right,male,4,18,NDl,Neutral,1,313,Direct
8,20,right,male,4,19,NDl,Neutral,1,339,Direct
8,20,right,male,4,20,NLr,Neutral,1,262,Inongruent
8,20,right,male,4,21,FDr,Fearful,1,348,Direct
8,20,right,male,4,22,FRi,Fearful,1,229,Inongruent
8,20,right,male,4,23,NRr,Neutral,1,387,Congruent
8,20,right,male,4,24,NRl,Neutral,1,345,Inongruent
8,20,right,male,4,25,NLl,Neutral,1,545,Congruent
8,20,right,male,4,26,NRr,Neutral,1,310,Congruent
8,20,right,male,4,27,NRr,Neutral,1,332,Congruent
8,20,right,male,4,28,FDr,Fearful,1,351,Direct
8,20,right,male,4,29,NDr,Neutral,1,276,Direct
8,20,right,male,4,30,NRr,Neutral,1,331,Congruent
8,20,right,male,4,31,FDr,Fearful,1,330,Direct
8,20,right,male,4,32,NLl,Neutral,1,334,Congruent
8,20,right,male,4,33,FRc,Fearful,1,251,Congruent
8,20,right,male,4,34,NLr,Neutral,1,377,Inongruent
8,20,right,male,4,35,FDl,Fearful,1,359,Direct
8,20,right,male,4,36,FLc,Fearful,1,349,Congruent
8,20,right,male,4,37,FDl,Fearful,1,300,Direct
8,20,right,male,4,38,FDl,Fearful,1,304,Direct
8,20,right,male,4,39,FLc,Fearful,1,384,Congruent
8,20,right,male,4,40,FRi,Fearful,1,350,Inongruent
8,20,right,male,4,41,NLr,Neutral,1,345,Inongruent
8,20,right,male,4,42,FLi,Fearful,1,321,Inongruent
8,20,right,male,4,43,NRl,Neutral,1,269,Inongruent
8,20,right,male,4,44,FRc,Fearful,1,329,Congruent
8,20,right,male,4,45,NLl,Neutral,1,300,Congruent
8,20,right,male,4,46,FLi,Fearful,1,338,Inongruent
8,20,right,male,4,47,NRr,Neutral,1,550,Congruent
8,20,right,male,4,48,FDl,Fearful,1,354,Direct
8,20,right,male,4,49,FLc,Fearful,1,364,Congruent
8,20,right,male,4,50,NLr,Neutral,1,272,Inongruent
8,20,right,male,4,51,NDl,Neutral,1,304,Direct
8,20,right,male,4,52,FLi,Fearful,1,248,Inongruent
8,20,right,male,4,53,FLi,Fearful,1,282,Inongruent
8,20,right,male,4,54,NRl,Neutral,1,271,Inongruent
8,20,right,male,4,55,FRi,Fearful,1,345,Inongruent
8,20,right,male,4,56,NLl,Neutral,1,380,Congruent
8,20,right,male,4,57,FLi,Fearful,1,284,Inongruent
8,20,right,male,4,58,NDr,Neutral,1,467,Direct
8,20,right,male,4,59,NLr,Neutral,1,300,Inongruent
8,20,right,male,4,60,FDr,Fearful,1,350,Direct
8,20,right,male,4,61,FLc,Fearful,1,295,Congruent
8,20,right,male,4,62,FLc,Fearful,1,545,Congruent
8,20,right,male,4,63,NDr,Neutral,1,326,Direct
8,20,right,male,4,64,NDr,Neutral,1,282,Direct
8,20,right,male,4,65,NDr,Neutral,1,305,Direct
8,20,right,male,4,66,NDr,Neutral,1,288,Direct
8,20,right,male,4,67,FLc,Fearful,1,339,Congruent
8,20,right,male,4,68,FDl,Fearful,1,337,Direct
8,20,right,male,4,69,NLr,Neutral,1,287,Inongruent
8,20,right,male,4,70,NRr,Neutral,1,346,Congruent
8,20,right,male,4,71,FRi,Fearful,1,254,Inongruent
8,20,right,male,4,72,FDr,Fearful,1,333,Direct
8,20,right,male,4,73,FDr,Fearful,1,418,Direct
8,20,right,male,4,74,NRl,Neutral,1,369,Inongruent
8,20,right,male,4,75,FRc,Fearful,1,292,Congruent
8,20,right,male,4,76,FLc,Fearful,1,360,Congruent
8,20,right,male,4,77,FRi,Fearful,1,298,Inongruent
8,20,right,male,4,78,NDl,Neutral,1,340,Direct
8,20,right,male,4,79,FRc,Fearful,1,365,Congruent
8,20,right,male,4,80,NRl,Neutral,1,298,Inongruent
8,20,right,male,4,81,FRc,Fearful,1,319,Congruent
8,20,right,male,4,82,FDr,Fearful,1,384,Direct
8,20,right,male,4,83,NRl,Neutral,1,288,Inongruent
8,20,right,male,4,84,NLr,Neutral,1,277,Inongruent
8,20,right,male,4,85,NDl,Neutral,1,344,Direct
8,20,right,male,4,86,FDl,Fearful,1,385,Direct
8,20,right,male,4,87,NRl,Neutral,1,318,Inongruent
8,20,right,male,4,88,NDl,Neutral,1,338,Direct
8,20,right,male,4,89,NDl,Neutral,1,318,Direct
8,20,right,male,4,90,FDl,Fearful,1,333,Direct
8,20,right,male,4,91,FRc,Fearful,1,331,Congruent
8,20,right,male,4,92,FDr,Fearful,1,296,Direct
8,20,right,male,4,93,FLc,Fearful,1,359,Congruent
8,20,right,male,4,94,FRi,Fearful,1,310,Inongruent
8,20,right,male,4,95,NLr,Neutral,1,271,Inongruent
8,20,right,male,4,96,NDr,Neutral,1,337,Direct
9,19,right,female,1,1,FRi,Fearful,1,592,Inongruent
9,19,right,female,1,2,FRi,Fearful,1,345,Inongruent
9,19,right,female,1,3,FLi,Fearful,1,292,Inongruent
9,19,right,female,1,4,NRr,Neutral,1,391,Congruent
9,19,right,female,1,5,NDr,Neutral,1,341,Direct
9,19,right,female,1,6,NDl,Neutral,1,345,Direct
9,19,right,female,1,7,NRl,Neutral,1,289,Inongruent
9,19,right,female,1,8,NDl,Neutral,1,342,Direct
9,19,right,female,1,9,NRr,Neutral,1,350,Congruent
9,19,right,female,1,10,NLl,Neutral,1,325,Congruent
9,19,right,female,1,11,FLc,Fearful,1,298,Congruent
9,19,right,female,1,12,NLl,Neutral,1,316,Congruent
9,19,right,female,1,13,FLi,Fearful,1,345,Inongruent
9,19,right,female,1,14,NDl,Neutral,1,296,Direct
9,19,right,female,1,15,NLr,Neutral,1,426,Inongruent
9,19,right,female,1,16,FRi,Fearful,1,324,Inongruent
9,19,right,female,1,17,FRc,Fearful,1,382,Congruent
9,19,right,female,1,18,NRr,Neutral,1,365,Congruent
9,19,right,female,1,19,FDr,Fearful,1,321,Direct
9,19,right,female,1,20,NLl,Neutral,1,308,Congruent
9,19,right,female,1,21,FLc,Fearful,1,372,Congruent
9,19,right,female,1,22,FLi,Fearful,1,298,Inongruent
9,19,right,female,1,23,FRc,Fearful,1,310,Congruent
9,19,right,female,1,24,NLr,Neutral,1,311,Inongruent
9,19,right,female,1,25,FRc,Fearful,1,345,Congruent
9,19,right,female,1,26,FLi,Fearful,1,325,Inongruent
9,19,right,female,1,27,NRl,Neutral,1,295,Inongruent
9,19,right,female,1,28,NRr,Neutral,1,299,Congruent
9,19,right,female,1,29,NLl,Neutral,1,283,Congruent
9,19,right,female,1,30,FRi,Fearful,1,320,Inongruent
9,19,right,female,1,31,FRc,Fearful,1,330,Congruent
9,19,right,female,1,32,FLc,Fearful,1,315,Congruent
9,19,right,female,1,33,NDr,Neutral,1,272,Direct
9,19,right,female,1,34,NDr,Neutral,1,417,Direct
9,19,right,female,1,35,FLi,Fearful,1,347,Inongruent
9,19,right,female,1,36,FDl,Fearful,1,347,Direct
9,19,right,female,1,37,NLl,Neutral,1,288,Congruent
9,19,right,female,1,38,NDl,Neutral,1,354,Direct
9,19,right,female,1,39,NRr,Neutral,1,305,Congruent
9,19,right,female,1,40,NRl,Neutral,1,309,Inongruent
9,19,right,female,1,41,FDl,Fearful,1,405,Direct
9,19,right,female,1,42,NDr,Neutral,1,369,Direct
9,19,right,female,1,43,NLr,Neutral,1,275,Inongruent
9,19,right,female,1,44,FDr,Fearful,1,371,Direct
9,19,right,female,1,45,FRi,Fearful,1,374,Inongruent
9,19,right,female,1,46,NLr,Neutral,1,442,Inongruent
9,19,right,female,1,47,NRl,Neutral,1,327,Inongruent
9,19,right,female,1,48,FLi,Fearful,1,526,Inongruent
9,19,right,female,1,49,FRi,Fearful,1,290,Inongruent
9,19,right,female,1,50,FRc,Fearful,1,311,Congruent
9,19,right,female,1,51,NDr,Neutral,1,371,Direct
9,19,right,female,1,52,FLi,Fearful,1,354,Inongruent
9,19,right,female,1,53,FRc,Fearful,1,336,Congruent
9,19,right,female,1,54,FLc,Fearful,1,350,Congruent
9,19,right,female,1,55,NRr,Neutral,1,300,Congruent
9,19,right,female,1,56,NDr,Neutral,1,312,Direct
9,19,right,female,1,57,FLi,Fearful,1,265,Inongruent
9,19,right,female,1,58,NDl,Neutral,0,220,Direct
9,19,right,female,1,59,NRl,Neutral,1,425,Inongruent
9,19,right,female,1,60,FDl,Fearful,1,368,Direct
9,19,right,female,1,61,NLr,Neutral,1,388,Inongruent
9,19,right,female,1,62,NDl,Neutral,1,341,Direct
9,19,right,female,1,63,NLr,Neutral,1,358,Inongruent
9,19,right,female,1,64,NLr,Neutral,1,367,Inongruent
9,19,right,female,1,65,NDr,Neutral,1,381,Direct
9,19,right,female,1,66,NLr,Neutral,1,402,Inongruent
9,19,right,female,1,67,NDl,Neutral,1,345,Direct
9,19,right,female,1,68,NRr,Neutral,1,380,Congruent
9,19,right,female,1,69,NRl,Neutral,1,359,Inongruent
9,19,right,female,1,70,FDl,Fearful,1,374,Direct
9,19,right,female,1,71,FDr,Fearful,1,328,Direct
9,19,right,female,1,72,FLc,Fearful,1,348,Congruent
9,19,right,female,1,73,FDr,Fearful,1,381,Direct
9,19,right,female,1,74,NLl,Neutral,1,462,Congruent
9,19,right,female,1,75,NLl,Neutral,1,384,Congruent
9,19,right,female,1,76,FLc,Fearful,1,395,Congruent
9,19,right,female,1,77,FRi,Fearful,1,400,Inongruent
9,19,right,female,1,78,FRc,Fearful,1,385,Congruent
9,19,right,female,1,79,NRr,Neutral,1,398,Congruent
9,19,right,female,1,80,FDr,Fearful,1,332,Direct
9,19,right,female,1,81,NRl,Neutral,1,414,Inongruent
9,19,right,female,1,82,FDr,Fearful,1,379,Direct
9,19,right,female,1,83,NRl,Neutral,1,324,Inongruent
9,19,right,female,1,84,FLc,Fearful,1,382,Congruent
9,19,right,female,1,85,FDl,Fearful,1,374,Direct
9,19,right,female,1,86,FDl,Fearful,1,394,Direct
9,19,right,female,1,87,NDr,Neutral,1,356,Direct
9,19,right,female,1,88,FDr,Fearful,1,333,Direct
9,19,right,female,1,89,FRc,Fearful,1,391,Congruent
