ParticipantID,ParticipantAge,ParticipantSex,ParticipantHandedness,Block,Trial,Validity,CueType,CueDirection,SOA,TargetPosition,CorrectResponse,ParticipantResponse,Accuracy,ReactionTime
1,20,female,right,Prac,1,Valid,Face,Right,500,Right,p,p,1,601
1,20,female,right,Prac,2,Invalid,Face,Left,750,Right,p,p,1,461
1,20,female,right,Prac,3,Valid,Face,Left,1000,Left,q,q,1,324
1,20,female,right,Prac,4,Valid,Arrow,Left,1000,Left,q,q,1,345
1,20,female,right,Prac,5,Invalid,Arrow,Right,750,Left,q,q,1,423
1,20,female,right,Prac,6,Invalid,Arrow,Left,300,Right,p,p,1,412
1,20,female,right,Prac,7,Valid,Line,Right,1000,Right,p,p,1,302
1,20,female,right,Prac,8,Invalid,Line,Left,500,Right,p,p,1,399
1,20,female,right,Prac,9,Invalid,Line,Right,750,Left,q,q,1,315
1,20,female,right,Main,1,Invalid,Face,Right,300,Left,q,q,1,320
1,20,female,right,Main,2,Invalid,Face,Right,150,Left,q,q,1,446
1,20,female,right,Main,3,Valid,Face,Right,150,Right,p,p,1,302
1,20,female,right,Main,4,Invalid,Face,Left,1000,Right,p,p,1,283
1,20,female,right,Main,5,Invalid,Face,Left,750,Right,p,p,1,298
1,20,female,right,Main,6,Valid,Face,Left,750,Left,q,q,1,280
1,20,female,right,Main,7,Valid,Face,Left,1000,Left,q,q,1,325
1,20,female,right,Main,8,Invalid,Face,Right,750,Left,q,q,1,323
1,20,female,right,Main,9,Valid,Face,Left,150,Left,q,q,1,336
1,20,female,right,Main,10,Valid,Face,Right,1000,Right,p,p,1,221
1,20,female,right,Main,11,Valid,Face,Left,300,Left,q,q,1,265
1,20,female,right,Main,12,Valid,Face,Right,500,Right,p,p,1,252
1,20,female,right,Main,13,Valid,Face,Right,300,Right,p,q,0,400
1,20,female,right,Main,14,Invalid,Face,Left,500,Right,p,p,1,356
1,20,female,right,Main,15,Invalid,Face,Left,150,Right,p,p,1,337
1,20,female,right,Main,16,Invalid,Face,Right,500,Left,q,q,1,337
1,20,female,right,Main,17,Invalid,Face,Left,300,Right,p,p,1,361
1,20,female,right,Main,18,Invalid,Face,Right,1000,Left,q,q,1,251
1,20,female,right,Main,19,Valid,Face,Left,500,Left,q,q,1,399
1,20,female,right,Main,20,Valid,Face,Right,750,Right,p,p,1,235
1,20,female,right,Main,21,Valid,Face,Left,750,Left,q,q,1,245
1,20,female,right,Main,22,Valid,Face,Right,1000,Right,p,p,1,285
1,20,female,right,Main,23,Invalid,Face,Left,500,Right,p,p,1,303
1,20,female,right,Main,24,Valid,Face,Right,300,Right,p,p,1,297
1,20,female,right,Main,25,Invalid,Face,Left,750,Right,p,p,1,320
1,20,female,right,Main,26,Invalid,Face,Right,500,Left,q,q,1,289
1,20,female,right,Main,27,Invalid,Face,Left,150,Right,p,p,1,273
1,20,female,right,Main,28,Valid,Face,Left,300,Left,q,q,1,284
1,20,female,right,Main,29,Invalid,Face,Left,1000,Right,p,p,1,274
1,20,female,right,Main,30,Valid,Face,Right,750,Right,p,p,1,251
1,20,female,right,Main,31,Valid,Face,Left,1000,Left,q,q,1,259
1,20,female,right,Main,32,Valid,Face,Left,150,Left,q,q,1,538
1,20,female,right,Main,33,Invalid,Face,Right,1000,Left,q,q,1,295
1,20,female,right,Main,34,Invalid,Face,Right,750,Left,q,q,1,358
1,20,female,right,Main,35,Valid,Face,Right,500,Right,p,p,1,397
1,20,female,right,Main,36,Valid,Face,Left,500,Left,q,q,1,266
1,20,female,right,Main,37,Valid,Face,Right,150,Right,p,p,1,379
1,20,female,right,Main,38,Invalid,Face,Right,300,Left,q,q,1,353
1,20,female,right,Main,39,Invalid,Face,Left,300,Right,p,p,1,249
1,20,female,right,Main,40,Invalid,Face,Right,150,Left,q,q,1,306
1,20,female,right,Main,41,Valid,Face,Right,750,Right,p,p,1,241
1,20,female,right,Main,42,Valid,Face,Left,1000,Left,q,q,1,249
1,20,female,right,Main,43,Invalid,Face,Left,300,Right,p,p,1,357
1,20,female,right,Main,44,Invalid,Face,Left,750,Right,p,p,1,282
1,20,female,right,Main,45,Valid,Face,Right,300,Right,p,p,1,373
1,20,female,right,Main,46,Valid,Face,Left,750,Left,q,q,1,266
1,20,female,right,Main,47,Invalid,Face,Right,300,Left,q,q,1,453
1,20,female,right,Main,48,Invalid,Face,Left,500,Right,p,p,1,80
1,20,female,right,Main,49,Invalid,Face,Left,150,Right,p,p,1,296
1,20,female,right,Main,50,Valid,Face,Left,150,Left,q,q,1,248
1,20,female,right,Main,51,Valid,Face,Left,300,Left,q,q,1,348
1,20,female,right,Main,52,Invalid,Face,Right,150,Left,q,q,1,361
1,20,female,right,Main,53,Invalid,Face,Left,1000,Right,p,p,1,261
1,20,female,right,Main,54,Valid,Face,Right,150,Right,p,p,1,342
1,20,female,right,Main,55,Invalid,Face,Right,500,Left,q,q,1,294
1,20,female,right,Main,56,Invalid,Face,Right,750,Left,q,q,1,270
1,20,female,right,Main,57,Invalid,Face,Right,1000,Left,q,q,1,309
1,20,female,right,Main,58,Valid,Face,Left,500,Left,q,q,1,335
1,20,female,right,Main,59,Valid,Face,Right,1000,Right,p,p,1,275
1,20,female,right,Main,60,Valid,Face,Right,500,Right,p,p,1,262
1,20,female,right,Main,61,Invalid,Face,Left,150,Right,p,p,1,359
1,20,female,right,Main,62,Valid,Face,Right,1000,Right,p,p,1,387
1,20,female,right,Main,63,Valid,Face,Left,1000,Left,q,q,1,205
1,20,female,right,Main,64,Invalid,Face,Right,300,Left,q,q,1,451
1,20,female,right,Main,65,Valid,Face,Left,500,Left,q,q,1,358
1,20,female,right,Main,66,Valid,Face,Left,300,Left,q,q,1,366
1,20,female,right,Main,67,Invalid,Face,Left,1000,Right,p,p,1,305
1,20,female,right,Main,68,Valid,Face,Right,150,Right,p,p,1,344
1,20,female,right,Main,69,Invalid,Face,Right,750,Left,q,q,1,303
1,20,female,right,Main,70,Invalid,Face,Left,750,Right,p,p,1,286
1,20,female,right,Main,71,Invalid,Face,Left,300,Right,p,p,1,360
1,20,female,right,Main,72,Valid,Face,Right,500,Right,p,p,1,288
1,20,female,right,Main,73,Valid,Face,Right,750,Right,p,p,1,271
1,20,female,right,Main,74,Valid,Face,Right,300,Right,p,p,1,306
1,20,female,right,Main,75,Valid,Face,Left,750,Left,q,q,1,330
1,20,female,right,Main,76,Invalid,Face,Right,500,Left,q,p,0,386
1,20,female,right,Main,77,Invalid,Face,Right,1000,Left,q,q,1,644
1,20,female,right,Main,78,Invalid,Face,Left,500,Right,p,p,1,305
1,20,female,right,Main,79,Valid,Face,Left,150,Left,q,q,1,312
1,20,female,right,Main,80,Invalid,Face,Right,150,Left,q,p,0,335
1,20,female,right,Main,81,Valid,Face,Left,150,Left,q,q,1,423
1,20,female,right,Main,82,Valid,Face,Right,500,Right,p,p,1,356
1,20,female,right,Main,83,Valid,Face,Right,150,Right,p,p,1,281
1,20,female,right,Main,84,Invalid,Face,Right,300,Left,q,q,1,307
1,20,female,right,Main,85,Invalid,Face,Left,1000,Right,p,p,1,289
1,20,female,right,Main,86,Invalid,Face,Right,1000,Left,q,q,1,352
1,20,female,right,Main,87,Invalid,Face,Right,500,Left,q,q,1,455
1,20,female,right,Main,88,Valid,Face,Right,300,Right,p,p,1,339
1,20,female,right,Main,89,Valid,Face,Left,300,Left,q,q,1,339
1,20,female,right,Main,90,Valid,Face,Right,1000,Right,p,p,1,271
1,20,female,right,Main,91,Invalid,Face,Right,150,Left,q,q,1,312
1,20,female,right,Main,92,Valid,Face,Left,1000,Left,q,q,1,374
1,20,female,right,Main,93,Invalid,Face,Right,750,Left,q,q,1,339
1,20,female,right,Main,94,Invalid,Face,Left,750,Right,p,p,1,321
1,20,female,right,Main,95,Valid,Face,Right,750,Right,p,p,1,288
1,20,female,right,Main,96,Invalid,Face,Left,300,Right,p,p,1,346
1,20,female,right,Main,97,Valid,Face,Left,500,Left,q,q,1,330
1,20,female,right,Main,98,Valid,Face,Left,750,Left,q,q,1,321
1,20,female,right,Main,99,Invalid,Face,Left,500,Right,p,p,1,312
1,20,female,right,Main,100,Invalid,Face,Left,150,Right,p,p,1,503
1,20,female,right,Main,101,Invalid,Face,Right,150,Left,q,q,1,319
1,20,female,right,Main,102,Valid,Face,Left,750,Left,q,q,1,350
1,20,female,right,Main,103,Valid,Face,Left,1000,Left,q,q,1,321
1,20,female,right,Main,104,Valid,Face,Right,1000,Right,p,p,1,390
1,20,female,right,Main,105,Invalid,Face,Left,1000,Right,p,p,1,337
1,20,female,right,Main,106,Invalid,Face,Left,500,Right,p,p,1,393
1,20,female,right,Main,107,Invalid,Face,Right,500,Left,q,q,1,535
1,20,female,right,Main,108,Invalid,Face,Left,150,Right,p,p,1,533
1,20,female,right,Main,109,Invalid,Face,Right,750,Left,q,q,1,316
1,20,female,right,Main,110,Invalid,Face,Right,1000,Left,q,q,1,433
1,20,female,right,Main,111,Valid,Face,Right,150,Right,p,p,1,331
1,20,female,right,Main,112,Valid,Face,Right,750,Right,p,p,1,305
1,20,female,right,Main,113,Valid,Face,Left,150,Left,q,q,1,305
1,20,female,right,Main,114,Valid,Face,Left,300,Left,q,q,1,378
1,20,female,right,Main,115,Valid,Face,Left,500,Left,q,q,1,321
1,20,female,right,Main,116,Invalid,Face,Left,300,Right,p,p,1,322
1,20,female,right,Main,117,Invalid,Face,Right,300,Left,q,q,1,323
1,20,female,right,Main,118,Valid,Face,Right,500,Right,p,p,1,284
1,20,female,right,Main,119,Valid,Face,Right,300,Right,p,p,1,310
1,20,female,right,Main,120,Invalid,Face,Left,750,Right,p,p,1,318
1,20,female,right,Main,121,Valid,Face,Left,300,Left,q,q,1,358
1,20,female,right,Main,122,Invalid,Face,Left,500,Right,p,p,1,310
1,20,female,right,Main,123,Invalid,Face,Right,150,Left,q,q,1,309
1,20,female,right,Main,124,Valid,Face,Right,1000,Right,p,p,1,299
1,20,female,right,Main,125,Invalid,Face,Right,1000,Left,q,q,1,377
1,20,female,right,Main,126,Invalid,Face,Left,1000,Right,p,p,1,316
1,20,female,right,Main,127,Invalid,Face,Left,750,Right,p,p,1,379
1,20,female,right,Main,128,Invalid,Face,Left,300,Right,p,p,1,545
1,20,female,right,Main,129,Valid,Face,Right,150,Right,p,p,1,296
1,20,female,right,Main,130,Invalid,Face,Right,300,Left,q,q,1,418
1,20,female,right,Main,131,Invalid,Face,Left,150,Right,p,p,1,341
1,20,female,right,Main,132,Valid,Face,Right,750,Right,p,p,1,267
1,20,female,right,Main,133,Valid,Face,Left,750,Left,q,q,1,316
1,20,female,right,Main,134,Valid,Face,Left,1000,Left,q,q,1,857
1,20,female,right,Main,135,Valid,Face,Left,150,Left,q,q,1,498
1,20,female,right,Main,136,Valid,Face,Left,500,Left,q,q,1,300
1,20,female,right,Main,137,Invalid,Face,Right,750,Left,q,q,1,348
1,20,female,right,Main,138,Valid,Face,Right,300,Right,p,p,1,491
1,20,female,right,Main,139,Valid,Face,Right,500,Right,p,p,1,500
1,20,female,right,Main,140,Invalid,Face,Right,500,Left,q,q,1,342
1,20,female,right,Main,141,Invalid,Face,Left,750,Right,p,p,1,348
1,20,female,right,Main,142,Valid,Face,Right,500,Right,p,p,1,308
1,20,female,right,Main,143,Invalid,Face,Right,1000,Left,q,q,1,338
1,20,female,right,Main,144,Valid,Face,Left,500,Left,q,q,1,338
1,20,female,right,Main,145,Invalid,Face,Right,300,Left,q,q,1,362
1,20,female,right,Main,146,Valid,Face,Left,150,Left,q,q,1,359
1,20,female,right,Main,147,Valid,Face,Right,150,Right,p,p,1,389
1,20,female,right,Main,148,Invalid,Face,Right,150,Left,q,q,1,489
1,20,female,right,Main,149,Invalid,Face,Left,150,Right,p,p,1,385
1,20,female,right,Main,150,Invalid,Face,Left,300,Right,p,p,1,359
1,20,female,right,Main,151,Valid,Face,Left,1000,Left,q,q,1,539
1,20,female,right,Main,152,Valid,Face,Right,1000,Right,p,p,1,335
1,20,female,right,Main,153,Invalid,Face,Left,1000,Right,p,p,1,476
1,20,female,right,Main,154,Valid,Face,Left,750,Left,q,q,1,365
1,20,female,right,Main,155,Invalid,Face,Right,750,Left,q,q,1,490
1,20,female,right,Main,156,Valid,Face,Left,300,Left,q,q,1,420
1,20,female,right,Main,157,Valid,Face,Right,300,Right,p,p,1,265
1,20,female,right,Main,158,Valid,Face,Right,750,Right,p,p,1,274
1,20,female,right,Main,159,Invalid,Face,Left,500,Right,p,p,1,293
1,20,female,right,Main,160,Invalid,Face,Right,500,Left,q,q,1,343
1,20,female,right,Main,161,Valid,Face,Left,300,Left,q,q,1,417
1,20,female,right,Main,162,Invalid,Face,Left,150,Right,p,p,1,380
1,20,female,right,Main,163,Valid,Face,Left,750,Left,q,q,1,232
1,20,female,right,Main,164,Invalid,Face,Right,150,Left,q,q,1,426
1,20,female,right,Main,165,Valid,Face,Right,150,Right,p,p,1,301
1,20,female,right,Main,166,Invalid,Face,Left,750,Right,p,p,1,333
1,20,female,right,Main,167,Valid,Face,Left,500,Left,q,q,1,245
1,20,female,right,Main,168,Valid,Face,Right,300,Right,p,p,1,321
1,20,female,right,Main,169,Invalid,Face,Right,750,Left,q,q,1,304
1,20,female,right,Main,170,Invalid,Face,Left,500,Right,p,p,1,242
1,20,female,right,Main,171,Valid,Face,Left,150,Left,q,q,1,268
1,20,female,right,Main,172,Valid,Face,Right,1000,Right,p,p,1,267
1,20,female,right,Main,173,Invalid,Face,Right,1000,Left,q,q,1,258
1,20,female,right,Main,174,Valid,Face,Right,500,Right,p,p,1,165
1,20,female,right,Main,175,Invalid,Face,Right,500,Left,q,q,1,316
1,20,female,right,Main,176,Invalid,Face,Right,300,Left,q,q,1,333
1,20,female,right,Main,177,Valid,Face,Right,750,Right,p,p,1,227
1,20,female,right,Main,178,Invalid,Face,Left,1000,Right,p,p,1,308
1,20,female,right,Main,179,Invalid,Face,Left,300,Right,p,p,1,374
1,20,female,right,Main,180,Valid,Face,Left,1000,Left,q,q,1,289
1,20,female,right,Main,181,Valid,Face,Right,150,Right,p,p,1,289
1,20,female,right,Main,182,Valid,Face,Right,750,Right,p,q,0,297
1,20,female,right,Main,183,Valid,Face,Left,500,Left,q,q,1,323
1,20,female,right,Main,184,Invalid,Face,Right,750,Left,q,q,1,362
1,20,female,right,Main,185,Valid,Face,Right,500,Right,p,p,1,281
1,20,female,right,Main,186,Valid,Face,Left,750,Left,q,q,1,313
1,20,female,right,Main,187,Valid,Face,Left,1000,Left,q,q,1,358
1,20,female,right,Main,188,Valid,Face,Left,150,Left,q,q,1,396
1,20,female,right,Main,189,Invalid,Face,Left,1000,Right,p,p,1,318
1,20,female,right,Main,190,Invalid,Face,Right,1000,Left,q,q,1,355
1,20,female,right,Main,191,Invalid,Face,Left,300,Right,p,p,1,347
1,20,female,right,Main,192,Invalid,Face,Right,500,Left,q,q,1,274
1,20,female,right,Main,193,Valid,Face,Right,300,Right,p,p,1,285
1,20,female,right,Main,194,Invalid,Face,Right,300,Left,q,q,1,311
1,20,female,right,Main,195,Invalid,Face,Left,750,Right,p,p,1,255
1,20,female,right,Main,196,Valid,Face,Right,1000,Right,p,p,1,319
1,20,female,right,Main,197,Invalid,Face,Left,150,Right,p,p,1,437
1,20,female,right,Main,198,Invalid,Face,Left,500,Right,p,p,1,330
1,20,female,right,Main,199,Invalid,Face,Right,150,Left,q,q,1,392
1,20,female,right,Main,200,Valid,Face,Left,300,Left,q,q,1,349
1,20,female,right,Main,201,Valid,Face,Left,500,Left,q,q,1,284
1,20,female,right,Main,202,Valid,Face,Right,500,Right,p,p,1,351
1,20,female,right,Main,203,Invalid,Face,Right,750,Left,q,q,1,548
1,20,female,right,Main,204,Invalid,Face,Left,750,Right,p,p,1,298
1,20,female,right,Main,205,Invalid,Face,Left,300,Right,p,p,1,347
1,20,female,right,Main,206,Invalid,Face,Left,500,Right,p,p,1,339
1,20,female,right,Main,207,Valid,Face,Left,750,Left,q,q,1,305
1,20,female,right,Main,208,Valid,Face,Right,150,Right,p,p,1,305
1,20,female,right,Main,209,Valid,Face,Left,1000,Left,q,q,1,550
1,20,female,right,Main,210,Invalid,Face,Left,150,Right,p,p,1,428
1,20,female,right,Main,211,Invalid,Face,Left,1000,Right,p,p,1,317
1,20,female,right,Main,212,Valid,Face,Left,300,Left,q,q,1,318
1,20,female,right,Main,213,Invalid,Face,Right,500,Left,q,q,1,439
1,20,female,right,Main,214,Valid,Face,Right,300,Right,p,p,1,243
1,20,female,right,Main,215,Invalid,Face,Right,1000,Left,q,q,1,299
1,20,female,right,Main,216,Invalid,Face,Right,150,Left,q,q,1,443
1,20,female,right,Main,217,Valid,Face,Left,150,Left,q,q,1,365
1,20,female,right,Main,218,Valid,Face,Right,1000,Right,p,p,1,288
1,20,female,right,Main,219,Valid,Face,Right,750,Right,p,p,1,288
1,20,female,right,Main,220,Invalid,Face,Right,300,Left,q,q,1,274
1,20,female,right,Main,221,Valid,Face,Right,750,Right,p,p,1,227
1,20,female,right,Main,222,Invalid,Face,Right,150,Left,q,q,1,334
1,20,female,right,Main,223,Invalid,Face,Left,1000,Right,p,p,1,290
1,20,female,right,Main,224,Valid,Face,Left,150,Left,q,q,1,258
1,20,female,right,Main,225,Invalid,Face,Left,500,Right,p,p,1,246
1,20,female,right,Main,226,Valid,Face,Right,300,Right,p,p,1,265
1,20,female,right,Main,227,Valid,Face,Left,300,Left,q,q,1,236
1,20,female,right,Main,228,Valid,Face,Left,500,Left,q,q,1,448
1,20,female,right,Main,229,Valid,Face,Left,750,Left,q,q,1,338
1,20,female,right,Main,230,Valid,Face,Right,1000,Right,p,p,1,294
1,20,female,right,Main,231,Invalid,Face,Right,500,Left,q,q,1,385
1,20,female,right,Main,232,Valid,Face,Right,150,Right,p,p,1,301
1,20,female,right,Main,233,Invalid,Face,Left,300,Right,p,p,1,390
1,20,female,right,Main,234,Invalid,Face,Right,1000,Left,q,q,1,321
1,20,female,right,Main,235,Invalid,Face,Right,750,Left,q,q,1,568
1,20,female,right,Main,236,Invalid,Face,Left,150,Right,p,p,1,461
1,20,female,right,Main,237,Invalid,Face,Right,300,Left,q,q,1,296
1,20,female,right,Main,238,Invalid,Face,Left,750,Right,p,p,1,352
1,20,female,right,Main,239,Valid,Face,Right,500,Right,p,p,1,359
1,20,female,right,Main,240,Valid,Face,Left,1000,Left,q,q,1,354
1,20,female,right,Main,1,Invalid,Line,Right,500,Left,q,q,1,1366
1,20,female,right,Main,2,Invalid,Line,Left,1000,Right,p,p,1,402
1,20,female,right,Main,3,Valid,Line,Left,750,Left,q,q,1,341
1,20,female,right,Main,4,Invalid,Line,Left,300,Right,p,p,1,317
1,20,female,right,Main,5,Valid,Line,Left,500,Left,q,q,1,382
1,20,female,right,Main,6,Invalid,Line,Right,150,Left,q,p,0,170
1,20,female,right,Main,7,Valid,Line,Right,750,Right,p,p,1,367
1,20,female,right,Main,8,Valid,Line,Right,500,Right,p,p,1,334
1,20,female,right,Main,9,Invalid,Line,Right,300,Left,q,q,1,390
1,20,female,right,Main,10,Invalid,Line,Right,750,Left,q,q,1,387
1,20,female,right,Main,11,Invalid,Line,Left,500,Right,p,p,1,265
1,20,female,right,Main,12,Valid,Line,Right,150,Right,p,p,1,370
1,20,female,right,Main,13,Invalid,Line,Left,150,Right,p,p,1,358
1,20,female,right,Main,14,Valid,Line,Left,300,Left,q,q,1,390
1,20,female,right,Main,15,Valid,Line,Left,150,Left,q,q,1,386
1,20,female,right,Main,16,Valid,Line,Right,1000,Right,p,p,1,260
1,20,female,right,Main,17,Valid,Line,Left,1000,Left,q,q,1,364
1,20,female,right,Main,18,Invalid,Line,Right,1000,Left,q,q,1,415
1,20,female,right,Main,19,Valid,Line,Right,300,Right,p,p,1,348
1,20,female,right,Main,20,Invalid,Line,Left,750,Right,p,p,1,346
1,20,female,right,Main,21,Valid,Line,Right,1000,Right,p,p,1,310
1,20,female,right,Main,22,Valid,Line,Right,500,Right,p,p,1,280
1,20,female,right,Main,23,Valid,Line,Left,750,Left,q,q,1,337
1,20,female,right,Main,24,Invalid,Line,Right,1000,Left,q,q,1,317
1,20,female,right,Main,25,Invalid,Line,Left,750,Right,p,p,1,276
1,20,female,right,Main,26,Invalid,Line,Left,1000,Right,p,p,1,259
1,20,female,right,Main,27,Valid,Line,Right,300,Right,p,p,1,342
1,20,female,right,Main,28,Valid,Line,Left,150,Left,q,q,1,357
1,20,female,right,Main,29,Valid,Line,Left,300,Left,q,q,1,364
1,20,female,right,Main,30,Invalid,Line,Right,150,Left,q,q,1,408
1,20,female,right,Main,31,Invalid,Line,Right,750,Left,q,q,1,331
1,20,female,right,Main,32,Valid,Line,Left,1000,Left,q,q,1,368
1,20,female,right,Main,33,Invalid,Line,Right,500,Left,q,q,1,367
1,20,female,right,Main,34,Invalid,Line,Left,300,Right,p,p,1,422
1,20,female,right,Main,35,Invalid,Line,Left,150,Right,p,p,1,392
1,20,female,right,Main,36,Valid,Line,Left,500,Left,q,q,1,335
1,20,female,right,Main,37,Valid,Line,Right,750,Right,p,p,1,317
1,20,female,right,Main,38,Invalid,Line,Right,300,Left,q,q,1,446
1,20,female,right,Main,39,Invalid,Line,Left,500,Right,p,p,1,274
1,20,female,right,Main,40,Valid,Line,Right,150,Right,p,p,1,315
1,20,female,right,Main,41,Valid,Line,Left,150,Left,q,q,1,369
1,20,female,right,Main,42,Valid,Line,Right,150,Right,p,p,1,262
1,20,female,right,Main,43,Invalid,Line,Left,500,Right,p,p,1,258
1,20,female,right,Main,44,Invalid,Line,Right,150,Left,q,q,1,363
1,20,female,right,Main,45,Valid,Line,Left,300,Left,q,q,1,330
1,20,female,right,Main,46,Invalid,Line,Right,500,Left,q,q,1,354
1,20,female,right,Main,47,Invalid,Line,Right,750,Left,q,q,1,328
1,20,female,right,Main,48,Valid,Line,Right,750,Right,p,p,1,327
1,20,female,right,Main,49,Invalid,Line,Right,300,Left,q,q,1,376
1,20,female,right,Main,50,Valid,Line,Right,500,Right,p,p,1,271
1,20,female,right,Main,51,Invalid,Line,Left,300,Right,p,p,1,345
1,20,female,right,Main,52,Invalid,Line,Left,150,Right,p,p,1,343
1,20,female,right,Main,53,Invalid,Line,Right,1000,Left,q,q,1,308
1,20,female,right,Main,54,Valid,Line,Left,750,Left,q,q,1,451
1,20,female,right,Main,55,Invalid,Line,Left,1000,Right,p,p,1,387
1,20,female,right,Main,56,Invalid,Line,Left,750,Right,p,p,1,320
1,20,female,right,Main,57,Valid,Line,Right,300,Right,p,p,1,544
1,20,female,right,Main,58,Valid,Line,Left,1000,Left,q,q,1,285
1,20,female,right,Main,59,Valid,Line,Left,500,Left,q,p,0,407
1,20,female,right,Main,60,Valid,Line,Right,1000,Right,p,p,1,289
1,20,female,right,Main,61,Invalid,Line,Left,150,Right,p,p,1,393
1,20,female,right,Main,62,Valid,Line,Right,750,Right,p,p,1,341
1,20,female,right,Main,63,Valid,Line,Right,500,Right,p,p,1,405
1,20,female,right,Main,64,Valid,Line,Left,150,Left,q,q,1,281
1,20,female,right,Main,65,Valid,Line,Left,300,Left,q,q,1,291
1,20,female,right,Main,66,Invalid,Line,Right,300,Left,q,q,1,373
1,20,female,right,Main,67,Valid,Line,Left,1000,Left,q,q,1,304
1,20,female,right,Main,68,Invalid,Line,Right,500,Left,q,q,1,394
1,20,female,right,Main,69,Invalid,Line,Right,150,Left,q,q,1,406
1,20,female,right,Main,70,Valid,Line,Right,1000,Right,p,p,1,328
1,20,female,right,Main,71,Invalid,Line,Right,1000,Left,q,q,1,292
1,20,female,right,Main,72,Invalid,Line,Left,1000,Right,p,p,1,306
1,20,female,right,Main,73,Invalid,Line,Right,750,Left,q,q,1,258
1,20,female,right,Main,74,Valid,Line,Left,500,Left,q,q,1,293
1,20,female,right,Main,75,Invalid,Line,Left,300,Right,p,p,1,367
1,20,female,right,Main,76,Valid,Line,Right,300,Right,p,p,1,262
1,20,female,right,Main,77,Invalid,Line,Left,750,Right,p,p,1,312
1,20,female,right,Main,78,Invalid,Line,Left,500,Right,p,p,1,289
1,20,female,right,Main,79,Valid,Line,Right,150,Right,p,p,1,313
1,20,female,right,Main,80,Valid,Line,Left,750,Left,q,q,1,320
1,20,female,right,Main,81,Valid,Line,Left,1000,Left,q,q,1,514
1,20,female,right,Main,82,Valid,Line,Right,750,Right,p,p,1,353
1,20,female,right,Main,83,Invalid,Line,Left,300,Right,p,p,1,456
1,20,female,right,Main,84,Valid,Line,Left,300,Left,q,q,1,484
1,20,female,right,Main,85,Invalid,Line,Right,1000,Left,q,q,1,442
1,20,female,right,Main,86,Valid,Line,Left,500,Left,q,q,1,334
1,20,female,right,Main,87,Invalid,Line,Left,750,Right,p,p,1,212
1,20,female,right,Main,88,Valid,Line,Right,300,Right,p,p,1,346
1,20,female,right,Main,89,Valid,Line,Right,1000,Right,p,p,1,230
1,20,female,right,Main,90,Valid,Line,Left,750,Left,q,q,1,304
1,20,female,right,Main,91,Invalid,Line,Left,150,Right,p,p,1,344
1,20,female,right,Main,92,Valid,Line,Right,500,Right,p,p,1,264
1,20,female,right,Main,93,Invalid,Line,Right,150,Left,q,q,1,417
1,20,female,right,Main,94,Invalid,Line,Right,300,Left,q,q,1,390
1,20,female,right,Main,95,Valid,Line,Right,150,Right,p,p,1,306
1,20,female,right,Main,96,Invalid,Line,Left,1000,Right,p,p,1,287
1,20,female,right,Main,97,Valid,Line,Left,150,Left,q,q,1,367
1,20,female,right,Main,98,Invalid,Line,Right,750,Left,q,p,0,52
1,20,female,right,Main,99,Invalid,Line,Left,500,Right,p,p,1,280
1,20,female,right,Main,100,Invalid,Line,Right,500,Left,q,q,1,425
1,20,female,right,Main,101,Valid,Line,Left,150,Left,q,q,1,340
1,20,female,right,Main,102,Invalid,Line,Left,300,Right,p,p,1,460
1,20,female,right,Main,103,Valid,Line,Right,500,Right,p,p,1,288
1,20,female,right,Main,104,Invalid,Line,Left,150,Right,p,p,1,360
1,20,female,right,Main,105,Valid,Line,Left,500,Left,q,q,1,455
1,20,female,right,Main,106,Invalid,Line,Left,500,Right,p,p,1,243
1,20,female,right,Main,107,Invalid,Line,Right,1000,Left,q,q,1,291
1,20,female,right,Main,108,Valid,Line,Left,750,Left,q,q,1,396
1,20,female,right,Main,109,Invalid,Line,Right,750,Left,q,q,1,336
1,20,female,right,Main,110,Valid,Line,Left,1000,Left,q,q,1,252
1,20,female,right,Main,111,Valid,Line,Right,750,Right,p,p,1,366
1,20,female,right,Main,112,Valid,Line,Left,300,Left,q,q,1,325
1,20,female,right,Main,113,Invalid,Line,Left,750,Right,p,p,1,268
1,20,female,right,Main,114,Invalid,Line,Right,300,Left,q,q,1,358
1,20,female,right,Main,115,Invalid,Line,Left,1000,Right,p,p,1,306
1,20,female,right,Main,116,Invalid,Line,Right,150,Left,q,q,1,402
1,20,female,right,Main,117,Valid,Line,Right,300,Right,p,p,1,327
1,20,female,right,Main,118,Valid,Line,Right,150,Right,p,p,1,366
1,20,female,right,Main,119,Invalid,Line,Right,500,Left,q,q,1,317
1,20,female,right,Main,120,Valid,Line,Right,1000,Right,p,p,1,266
1,20,female,right,Main,121,Valid,Line,Left,150,Left,q,q,1,275
1,20,female,right,Main,122,Valid,Line,Right,1000,Right,p,p,1,234
1,20,female,right,Main,123,Invalid,Line,Right,1000,Left,q,q,1,306
1,20,female,right,Main,124,Valid,Line,Right,150,Right,p,p,1,353
1,20,female,right,Main,125,Invalid,Line,Left,500,Right,p,p,1,281
1,20,female,right,Main,126,Invalid,Line,Left,300,Right,p,p,1,307
1,20,female,right,Main,127,Valid,Line,Left,1000,Left,q,q,1,233
1,20,female,right,Main,128,Valid,Line,Right,300,Right,p,p,1,357
1,20,female,right,Main,129,Invalid,Line,Left,750,Right,p,p,1,291
1,20,female,right,Main,130,Invalid,Line,Right,300,Left,q,q,1,397
1,20,female,right,Main,131,Valid,Line,Left,300,Left,q,q,1,370
1,20,female,right,Main,132,Invalid,Line,Left,1000,Right,p,p,1,301
1,20,female,right,Main,133,Valid,Line,Right,750,Right,p,p,1,333
1,20,female,right,Main,134,Invalid,Line,Left,150,Right,p,p,1,467
1,20,female,right,Main,135,Invalid,Line,Right,150,Left,q,q,1,508
1,20,female,right,Main,136,Invalid,Line,Right,750,Left,q,q,1,331
1,20,female,right,Main,137,Invalid,Line,Right,500,Left,q,q,1,324
1,20,female,right,Main,138,Valid,Line,Left,750,Left,q,q,1,283
1,20,female,right,Main,139,Valid,Line,Right,500,Right,p,p,1,348
1,20,female,right,Main,140,Valid,Line,Left,500,Left,q,q,1,315
1,20,female,right,Main,141,Valid,Line,Right,750,Right,p,p,1,234
1,20,female,right,Main,142,Invalid,Line,Right,150,Left,q,q,1,364
1,20,female,right,Main,143,Valid,Line,Left,500,Left,q,p,0,307
1,20,female,right,Main,144,Valid,Line,Left,1000,Left,q,q,1,345
1,20,female,right,Main,145,Invalid,Line,Right,500,Left,q,q,1,561
1,20,female,right,Main,146,Invalid,Line,Left,300,Right,p,p,1,337
1,20,female,right,Main,147,Valid,Line,Left,750,Left,q,q,1,287
1,20,female,right,Main,148,Invalid,Line,Right,300,Left,q,q,1,345
1,20,female,right,Main,149,Invalid,Line,Right,750,Left,q,q,1,320
1,20,female,right,Main,150,Valid,Line,Right,300,Right,p,p,1,328
1,20,female,right,Main,151,Invalid,Line,Right,1000,Left,q,q,1,333
1,20,female,right,Main,152,Valid,Line,Right,500,Right,p,p,1,342
1,20,female,right,Main,153,Invalid,Line,Left,1000,Right,p,p,1,282
1,20,female,right,Main,154,Invalid,Line,Left,500,Right,p,p,1,324
1,20,female,right,Main,155,Valid,Line,Right,1000,Right,p,p,1,297
1,20,female,right,Main,156,Invalid,Line,Left,150,Right,p,p,1,377
1,20,female,right,Main,157,Valid,Line,Right,150,Right,p,p,1,349
1,20,female,right,Main,158,Valid,Line,Left,300,Left,q,p,0,365
1,20,female,right,Main,159,Invalid,Line,Left,750,Right,p,p,1,266
1,20,female,right,Main,160,Valid,Line,Left,150,Left,q,q,1,419
1,20,female,right,Main,161,Invalid,Line,Right,750,Left,q,q,1,366
1,20,female,right,Main,162,Valid,Line,Right,1000,Right,p,p,1,265
1,20,female,right,Main,163,Valid,Line,Right,750,Right,p,p,1,282
1,20,female,right,Main,164,Valid,Line,Left,300,Left,q,q,1,412
1,20,female,right,Main,165,Valid,Line,Left,150,Left,q,q,1,391
1,20,female,right,Main,166,Valid,Line,Right,150,Right,p,p,1,339
1,20,female,right,Main,167,Valid,Line,Left,1000,Left,q,q,1,280
1,20,female,right,Main,168,Invalid,Line,Left,150,Right,p,p,1,392
1,20,female,right,Main,169,Valid,Line,Left,750,Left,q,q,1,316
1,20,female,right,Main,170,Invalid,Line,Left,1000,Right,p,p,1,265
1,20,female,right,Main,171,Invalid,Line,Left,300,Right,p,p,1,308
1,20,female,right,Main,172,Valid,Line,Right,300,Right,p,p,1,350
1,20,female,right,Main,173,Invalid,Line,Left,750,Right,p,p,1,251
1,20,female,right,Main,174,Invalid,Line,Left,500,Right,p,p,1,311
1,20,female,right,Main,175,Valid,Line,Right,500,Right,p,p,1,272
1,20,female,right,Main,176,Invalid,Line,Right,300,Left,q,q,1,299
1,20,female,right,Main,177,Invalid,Line,Right,1000,Left,q,q,1,329
1,20,female,right,Main,178,Invalid,Line,Right,500,Left,q,q,1,402
1,20,female,right,Main,179,Valid,Line,Left,500,Left,q,q,1,359
1,20,female,right,Main,180,Invalid,Line,Right,150,Left,q,q,1,453
1,20,female,right,Main,181,Valid,Line,Left,1000,Left,q,q,1,300
1,20,female,right,Main,182,Valid,Line,Right,1000,Right,p,p,1,346
1,20,female,right,Main,183,Invalid,Line,Left,300,Right,p,p,1,362
1,20,female,right,Main,184,Valid,Line,Right,750,Right,p,p,1,304
1,20,female,right,Main,185,Invalid,Line,Right,150,Left,q,q,1,471
1,20,female,right,Main,186,Invalid,Line,Right,500,Left,q,p,0,362
1,20,female,right,Main,187,Invalid,Line,Right,1000,Left,q,q,1,486
1,20,female,right,Main,188,Valid,Line,Left,300,Left,q,q,1,368
1,20,female,right,Main,189,Invalid,Line,Left,150,Right,p,p,1,405
1,20,female,right,Main,190,Invalid,Line,Right,300,Left,q,q,1,434
1,20,female,right,Main,191,Valid,Line,Left,750,Left,q,q,1,341
1,20,female,right,Main,192,Valid,Line,Right,300,Right,p,p,1,557
1,20,female,right,Main,193,Valid,Line,Left,500,Left,q,q,1,365
1,20,female,right,Main,194,Invalid,Line,Right,750,Left,q,q,1,354
1,20,female,right,Main,195,Valid,Line,Right,500,Right,p,p,1,337
1,20,female,right,Main,196,Valid,Line,Left,150,Left,q,q,1,351
1,20,female,right,Main,197,Invalid,Line,Left,750,Right,p,p,1,317
1,20,female,right,Main,198,Invalid,Line,Left,1000,Right,p,p,1,330
1,20,female,right,Main,199,Invalid,Line,Left,500,Right,p,p,1,314
1,20,female,right,Main,200,Valid,Line,Right,150,Right,p,p,1,393
1,20,female,right,Main,201,Invalid,Line,Left,1000,Right,p,p,1,339
1,20,female,right,Main,202,Invalid,Line,Right,300,Left,q,q,1,411
1,20,female,right,Main,203,Invalid,Line,Left,150,Right,p,p,1,431
1,20,female,right,Main,204,Invalid,Line,Right,500,Left,q,q,1,323
1,20,female,right,Main,205,Valid,Line,Left,500,Left,q,q,1,404
1,20,female,right,Main,206,Valid,Line,Right,150,Right,p,p,1,375
1,20,female,right,Main,207,Valid,Line,Left,300,Left,q,q,1,446
1,20,female,right,Main,208,Valid,Line,Right,1000,Right,p,p,1,366
1,20,female,right,Main,209,Valid,Line,Left,150,Left,q,q,1,491
1,20,female,right,Main,210,Invalid,Line,Right,150,Left,q,q,1,491
1,20,female,right,Main,211,Invalid,Line,Left,500,Right,p,p,1,333
1,20,female,right,Main,212,Invalid,Line,Left,750,Right,p,p,1,315
1,20,female,right,Main,213,Valid,Line,Right,500,Right,p,p,1,460
1,20,female,right,Main,214,Invalid,Line,Right,750,Left,q,q,1,542
1,20,female,right,Main,215,Valid,Line,Right,750,Right,p,p,1,380
1,20,female,right,Main,216,Invalid,Line,Left,300,Right,p,p,1,330
1,20,female,right,Main,217,Valid,Line,Left,750,Left,q,q,1,345
1,20,female,right,Main,218,Valid,Line,Right,300,Right,p,p,1,345
1,20,female,right,Main,219,Valid,Line,Left,1000,Left,q,q,1,341
1,20,female,right,Main,220,Invalid,Line,Right,1000,Left,q,p,0,410
1,20,female,right,Main,221,Valid,Line,Right,300,Right,p,p,1,367
1,20,female,right,Main,222,Valid,Line,Right,150,Right,p,p,1,364
1,20,female,right,Main,223,Invalid,Line,Left,500,Right,p,p,1,347
1,20,female,right,Main,224,Valid,Line,Left,150,Left,q,q,1,400
1,20,female,right,Main,225,Invalid,Line,Left,1000,Right,p,p,1,698
1,20,female,right,Main,226,Invalid,Line,Right,500,Left,q,q,1,348
1,20,female,right,Main,227,Invalid,Line,Right,150,Left,q,q,1,553
1,20,female,right,Main,228,Invalid,Line,Right,750,Left,q,q,1,391
1,20,female,right,Main,229,Valid,Line,Left,300,Left,q,q,1,333
1,20,female,right,Main,230,Valid,Line,Left,1000,Left,q,q,1,361
1,20,female,right,Main,231,Valid,Line,Right,500,Right,p,p,1,320
1,20,female,right,Main,232,Valid,Line,Right,1000,Right,p,p,1,309
1,20,female,right,Main,233,Valid,Line,Left,750,Left,q,q,1,325
1,20,female,right,Main,234,Invalid,Line,Left,750,Right,p,p,1,308
1,20,female,right,Main,235,Invalid,Line,Left,150,Right,p,p,1,355
1,20,female,right,Main,236,Invalid,Line,Right,1000,Left,q,q,1,367
1,20,female,right,Main,237,Valid,Line,Left,500,Left,q,q,1,381
1,20,female,right,Main,238,Invalid,Line,Right,300,Left,q,q,1,467
1,20,female,right,Main,239,Invalid,Line,Left,300,Right,p,p,1,326
1,20,female,right,Main,240,Valid,Line,Right,750,Right,p,p,1,325
1,20,female,right,Main,1,Invalid,Arrow,Left,300,Right,p,p,1,542
1,20,female,right,Main,2,Valid,Arrow,Left,150,Left,q,q,1,340
1,20,female,right,Main,3,Invalid,Arrow,Left,150,Right,p,p,1,370
1,20,female,right,Main,4,Valid,Arrow,Left,500,Left,q,q,1,377
1,20,female,right,Main,5,Invalid,Arrow,Right,750,Left,q,q,1,342
1,20,female,right,Main,6,Valid,Arrow,Right,300,Right,p,p,1,326
1,20,female,right,Main,7,Invalid,Arrow,Right,150,Left,q,q,1,469
1,20,female,right,Main,8,Invalid,Arrow,Right,300,Left,q,q,1,408
1,20,female,right,Main,9,Valid,Arrow,Left,750,Left,q,q,1,323
1,20,female,right,Main,10,Valid,Arrow,Right,500,Right,p,p,1,420
1,20,female,right,Main,11,Valid,Arrow,Left,300,Left,q,q,1,353
1,20,female,right,Main,12,Valid,Arrow,Right,750,Right,p,p,1,247
1,20,female,right,Main,13,Valid,Arrow,Right,150,Right,p,p,1,392
1,20,female,right,Main,14,Invalid,Arrow,Left,500,Right,p,p,1,310
1,20,female,right,Main,15,Invalid,Arrow,Left,750,Right,p,p,1,270
1,20,female,right,Main,16,Invalid,Arrow,Right,500,Left,q,q,1,345
1,20,female,right,Main,17,Valid,Arrow,Left,1000,Left,q,q,1,389
1,20,female,right,Main,18,Invalid,Arrow,Right,1000,Left,q,q,1,344
1,20,female,right,Main,19,Valid,Arrow,Right,1000,Right,p,p,1,308
1,20,female,right,Main,20,Invalid,Arrow,Left,1000,Right,p,p,1,330
1,20,female,right,Main,21,Invalid,Arrow,Left,750,Right,p,p,1,345
1,20,female,right,Main,22,Invalid,Arrow,Right,750,Left,q,q,1,311
1,20,female,right,Main,23,Invalid,Arrow,Right,150,Left,q,q,1,422
1,20,female,right,Main,24,Invalid,Arrow,Left,300,Right,p,p,1,386
1,20,female,right,Main,25,Valid,Arrow,Right,1000,Right,p,p,1,293
1,20,female,right,Main,26,Valid,Arrow,Right,300,Right,p,p,1,303
1,20,female,right,Main,27,Invalid,Arrow,Left,1000,Right,p,p,1,356
1,20,female,right,Main,28,Invalid,Arrow,Left,500,Right,p,p,1,332
1,20,female,right,Main,29,Valid,Arrow,Left,150,Left,q,q,1,442
1,20,female,right,Main,30,Valid,Arrow,Left,300,Left,q,q,1,390
1,20,female,right,Main,31,Valid,Arrow,Right,150,Right,p,p,1,346
1,20,female,right,Main,32,Invalid,Arrow,Right,300,Left,q,q,1,346
1,20,female,right,Main,33,Valid,Arrow,Right,500,Right,p,p,1,258
1,20,female,right,Main,34,Valid,Arrow,Left,500,Left,q,q,1,302
1,20,female,right,Main,35,Valid,Arrow,Left,1000,Left,q,q,1,291
1,20,female,right,Main,36,Invalid,Arrow,Right,1000,Left,q,q,1,362
1,20,female,right,Main,37,Valid,Arrow,Right,750,Right,p,p,1,255
1,20,female,right,Main,38,Valid,Arrow,Left,750,Left,q,q,1,241
1,20,female,right,Main,39,Invalid,Arrow,Right,500,Left,q,p,0,341
1,20,female,right,Main,40,Invalid,Arrow,Left,150,Right,p,p,1,323
1,20,female,right,Main,41,Valid,Arrow,Left,300,Left,q,q,1,428
1,20,female,right,Main,42,Valid,Arrow,Right,750,Right,p,p,1,311
1,20,female,right,Main,43,Invalid,Arrow,Right,750,Left,q,q,1,279
1,20,female,right,Main,44,Invalid,Arrow,Left,500,Right,p,p,1,418
1,20,female,right,Main,45,Invalid,Arrow,Left,1000,Right,p,p,1,299
1,20,female,right,Main,46,Invalid,Arrow,Left,750,Right,p,p,1,330
1,20,female,right,Main,47,Invalid,Arrow,Left,150,Right,p,p,1,400
1,20,female,right,Main,48,Invalid,Arrow,Right,150,Left,q,q,1,388
1,20,female,right,Main,49,Valid,Arrow,Left,150,Left,q,q,1,376
1,20,female,right,Main,50,Valid,Arrow,Right,150,Right,p,p,1,429
1,20,female,right,Main,51,Valid,Arrow,Right,500,Right,p,p,1,338
1,20,female,right,Main,52,Valid,Arrow,Right,300,Right,p,p,1,450
1,20,female,right,Main,53,Invalid,Arrow,Left,300,Right,p,p,1,381
1,20,female,right,Main,54,Valid,Arrow,Left,750,Left,q,q,1,522
1,20,female,right,Main,55,Invalid,Arrow,Right,500,Left,q,q,1,403
1,20,female,right,Main,56,Invalid,Arrow,Right,1000,Left,q,q,1,324
1,20,female,right,Main,57,Invalid,Arrow,Right,300,Left,q,q,1,453
1,20,female,right,Main,58,Valid,Arrow,Right,1000,Right,p,p,1,317
1,20,female,right,Main,59,Valid,Arrow,Left,500,Left,q,q,1,390
1,20,female,right,Main,60,Valid,Arrow,Left,1000,Left,q,q,1,328
1,20,female,right,Main,61,Invalid,Arrow,Left,150,Right,p,p,1,527
1,20,female,right,Main,62,Invalid,Arrow,Left,1000,Right,p,p,1,372
1,20,female,right,Main,63,Invalid,Arrow,Right,300,Left,q,q,1,451
1,20,female,right,Main,64,Valid,Arrow,Left,500,Left,q,q,1,335
1,20,female,right,Main,65,Invalid,Arrow,Left,750,Right,p,p,1,396
1,20,female,right,Main,66,Valid,Arrow,Right,750,Right,p,p,1,440
1,20,female,right,Main,67,Valid,Arrow,Left,300,Left,q,q,1,476
1,20,female,right,Main,68,Valid,Arrow,Left,150,Left,q,q,1,437
1,20,female,right,Main,69,Invalid,Arrow,Right,750,Left,q,q,1,367
1,20,female,right,Main,70,Invalid,Arrow,Right,1000,Left,q,q,1,387
1,20,female,right,Main,71,Valid,Arrow,Right,300,Right,p,p,1,513
1,20,female,right,Main,72,Invalid,Arrow,Right,150,Left,q,q,1,408
1,20,female,right,Main,73,Invalid,Arrow,Right,500,Left,q,p,0,342
1,20,female,right,Main,74,Invalid,Arrow,Left,300,Right,p,p,1,382
1,20,female,right,Main,75,Valid,Arrow,Right,1000,Right,p,p,1,320
1,20,female,right,Main,76,Valid,Arrow,Right,150,Right,p,p,1,479
1,20,female,right,Main,77,Valid,Arrow,Left,750,Left,q,q,1,336
1,20,female,right,Main,78,Invalid,Arrow,Left,500,Right,p,p,1,288
1,20,female,right,Main,79,Valid,Arrow,Left,1000,Left,q,q,1,583
1,20,female,right,Main,80,Valid,Arrow,Right,500,Right,p,p,1,357
1,20,female,right,Main,81,Valid,Arrow,Right,300,Right,p,p,1,413
1,20,female,right,Main,82,Invalid,Arrow,Left,300,Right,p,p,1,403
1,20,female,right,Main,83,Invalid,Arrow,Right,300,Left,q,q,1,336
1,20,female,right,Main,84,Invalid,Arrow,Left,500,Right,p,p,1,296
1,20,female,right,Main,85,Invalid,Arrow,Left,1000,Right,p,p,1,359
1,20,female,right,Main,86,Invalid,Arrow,Right,750,Left,q,q,1,348
1,20,female,right,Main,87,Valid,Arrow,Left,500,Left,q,q,1,515
1,20,female,right,Main,88,Valid,Arrow,Left,150,Left,q,q,1,394
1,20,female,right,Main,89,Invalid,Arrow,Right,500,Left,q,q,1,328
1,20,female,right,Main,90,Valid,Arrow,Left,1000,Left,q,q,1,357
1,20,female,right,Main,91,Invalid,Arrow,Left,150,Right,p,p,1,427
1,20,female,right,Main,92,Invalid,Arrow,Left,750,Right,p,q,0,366
1,20,female,right,Main,93,Valid,Arrow,Right,500,Right,p,p,1,317
1,20,female,right,Main,94,Valid,Arrow,Right,150,Right,p,p,1,364
1,20,female,right,Main,95,Invalid,Arrow,Right,150,Left,q,q,1,417
1,20,female,right,Main,96,Valid,Arrow,Left,300,Left,q,q,1,382
1,20,female,right,Main,97,Valid,Arrow,Left,750,Left,q,q,1,450
1,20,female,right,Main,98,Valid,Arrow,Right,750,Right,p,p,1,260
1,20,female,right,Main,99,Invalid,Arrow,Right,1000,Left,q,q,1,268
1,20,female,right,Main,100,Valid,Arrow,Right,1000,Right,p,p,1,259
1,20,female,right,Main,101,Valid,Arrow,Left,150,Left,q,q,1,580
1,20,female,right,Main,102,Invalid,Arrow,Right,300,Left,q,q,1,378
1,20,female,right,Main,103,Invalid,Arrow,Left,150,Right,p,p,1,415
1,20,female,right,Main,104,Invalid,Arrow,Left,750,Right,p,p,1,338
1,20,female,right,Main,105,Invalid,Arrow,Right,750,Left,q,q,1,304
1,20,female,right,Main,106,Valid,Arrow,Right,300,Right,p,p,1,321
1,20,female,right,Main,107,Valid,Arrow,Right,500,Right,p,p,1,338
1,20,female,right,Main,108,Invalid,Arrow,Left,500,Right,p,p,1,315
1,20,female,right,Main,109,Valid,Arrow,Right,750,Right,p,p,1,257
1,20,female,right,Main,110,Invalid,Arrow,Right,1000,Left,q,q,1,329
1,20,female,right,Main,111,Valid,Arrow,Left,300,Left,q,q,1,498
1,20,female,right,Main,112,Invalid,Arrow,Left,300,Right,p,p,1,348
1,20,female,right,Main,113,Invalid,Arrow,Right,150,Left,q,q,1,409
1,20,female,right,Main,114,Valid,Arrow,Right,1000,Right,p,p,1,339
1,20,female,right,Main,115,Valid,Arrow,Left,500,Left,q,q,1,603
1,20,female,right,Main,116,Valid,Arrow,Left,750,Left,q,q,1,279
1,20,female,right,Main,117,Invalid,Arrow,Right,500,Left,q,q,1,642
1,20,female,right,Main,118,Valid,Arrow,Right,150,Right,p,p,1,420
1,20,female,right,Main,119,Invalid,Arrow,Left,1000,Right,p,q,0,309
1,20,female,right,Main,120,Valid,Arrow,Left,1000,Left,q,q,1,290
1,20,female,right,Main,121,Invalid,Arrow,Left,150,Right,p,p,1,419
1,20,female,right,Main,122,Valid,Arrow,Left,500,Left,q,q,1,287
1,20,female,right,Main,123,Invalid,Arrow,Right,150,Left,q,q,1,432
1,20,female,right,Main,124,Valid,Arrow,Right,500,Right,p,p,1,284
1,20,female,right,Main,125,Valid,Arrow,Left,300,Left,q,q,1,366
1,20,female,right,Main,126,Valid,Arrow,Right,300,Right,p,p,1,333
1,20,female,right,Main,127,Valid,Arrow,Right,1000,Right,p,p,1,337
1,20,female,right,Main,128,Invalid,Arrow,Right,500,Left,q,q,1,353
1,20,female,right,Main,129,Invalid,Arrow,Right,1000,Left,q,q,1,325
1,20,female,right,Main,130,Valid,Arrow,Left,1000,Left,q,q,1,322
1,20,female,right,Main,131,Valid,Arrow,Right,150,Right,p,p,1,417
1,20,female,right,Main,132,Invalid,Arrow,Left,500,Right,p,p,1,286
1,20,female,right,Main,133,Invalid,Arrow,Left,750,Right,p,p,1,310
1,20,female,right,Main,134,Valid,Arrow,Left,150,Left,q,q,1,350
1,20,female,right,Main,135,Invalid,Arrow,Right,750,Left,q,q,1,291
1,20,female,right,Main,136,Invalid,Arrow,Left,1000,Right,p,p,1,298
1,20,female,right,Main,137,Invalid,Arrow,Right,300,Left,q,q,1,339
1,20,female,right,Main,138,Valid,Arrow,Right,750,Right,p,p,1,297
1,20,female,right,Main,139,Valid,Arrow,Left,750,Left,q,q,1,233
1,20,female,right,Main,140,Invalid,Arrow,Left,300,Right,p,p,1,428
1,20,female,right,Main,141,Valid,Arrow,Left,1000,Left,q,q,1,261
1,20,female,right,Main,142,Invalid,Arrow,Left,750,Right,p,p,1,335
1,20,female,right,Main,143,Valid,Arrow,Right,300,Right,p,q,0,375
1,20,female,right,Main,144,Valid,Arrow,Right,150,Right,p,p,1,348
1,20,female,right,Main,145,Invalid,Arrow,Right,150,Left,q,q,1,385
1,20,female,right,Main,146,Valid,Arrow,Right,500,Right,p,p,1,239
1,20,female,right,Main,147,Valid,Arrow,Left,300,Left,q,q,1,339
1,20,female,right,Main,148,Invalid,Arrow,Left,1000,Right,p,p,1,240
1,20,female,right,Main,149,Invalid,Arrow,Right,1000,Left,q,q,1,312
1,20,female,right,Main,150,Valid,Arrow,Right,750,Right,p,p,1,248
1,20,female,right,Main,151,Invalid,Arrow,Left,500,Right,p,p,1,339
1,20,female,right,Main,152,Valid,Arrow,Left,750,Left,q,q,1,546
1,20,female,right,Main,153,Valid,Arrow,Left,150,Left,q,q,1,480
1,20,female,right,Main,154,Invalid,Arrow,Left,300,Right,p,p,1,410
1,20,female,right,Main,155,Valid,Arrow,Right,1000,Right,p,p,1,244
1,20,female,right,Main,156,Invalid,Arrow,Left,150,Right,p,p,1,430
1,20,female,right,Main,157,Invalid,Arrow,Right,500,Left,q,q,1,331
1,20,female,right,Main,158,Invalid,Arrow,Right,300,Left,q,q,1,635
1,20,female,right,Main,159,Invalid,Arrow,Right,750,Left,q,q,1,341
1,20,female,right,Main,160,Valid,Arrow,Left,500,Left,q,q,1,502
1,20,female,right,Main,161,Valid,Arrow,Right,500,Right,p,p,1,352
1,20,female,right,Main,162,Valid,Arrow,Left,150,Left,q,q,1,479
1,20,female,right,Main,163,Valid,Arrow,Left,300,Left,q,q,1,441
1,20,female,right,Main,164,Invalid,Arrow,Right,300,Left,q,q,1,373
1,20,female,right,Main,165,Invalid,Arrow,Right,150,Left,q,q,1,378
1,20,female,right,Main,166,Invalid,Arrow,Right,500,Left,q,q,1,489
1,20,female,right,Main,167,Valid,Arrow,Right,750,Right,p,p,1,289
1,20,female,right,Main,168,Valid,Arrow,Right,1000,Right,p,p,1,367
1,20,female,right,Main,169,Valid,Arrow,Left,1000,Left,q,q,1,330
1,20,female,right,Main,170,Invalid,Arrow,Left,1000,Right,p,p,1,295
1,20,female,right,Main,171,Invalid,Arrow,Left,300,Right,p,p,1,321
1,20,female,right,Main,172,Invalid,Arrow,Right,750,Left,q,q,1,352
1,20,female,right,Main,173,Valid,Arrow,Right,300,Right,p,p,1,311
1,20,female,right,Main,174,Valid,Arrow,Left,750,Left,q,q,1,319
1,20,female,right,Main,175,Invalid,Arrow,Left,750,Right,p,p,1,574
1,20,female,right,Main,176,Valid,Arrow,Right,150,Right,p,p,1,363
1,20,female,right,Main,177,Valid,Arrow,Left,500,Left,q,q,1,466
1,20,female,right,Main,178,Invalid,Arrow,Left,150,Right,p,p,1,347
1,20,female,right,Main,179,Invalid,Arrow,Left,500,Right,p,p,1,331
1,20,female,right,Main,180,Invalid,Arrow,Right,1000,Left,q,q,1,295
1,20,female,right,Main,181,Valid,Arrow,Right,1000,Right,p,p,1,293
1,20,female,right,Main,182,Valid,Arrow,Left,300,Left,q,q,1,368
1,20,female,right,Main,183,Invalid,Arrow,Left,1000,Right,p,p,1,291
1,20,female,right,Main,184,Invalid,Arrow,Right,300,Left,q,q,1,413
1,20,female,right,Main,185,Invalid,Arrow,Right,1000,Left,q,q,1,414
1,20,female,right,Main,186,Valid,Arrow,Right,150,Right,p,p,1,321
1,20,female,right,Main,187,Valid,Arrow,Left,750,Left,q,q,1,384
1,20,female,right,Main,188,Valid,Arrow,Right,300,Right,p,p,1,294
1,20,female,right,Main,189,Invalid,Arrow,Left,150,Right,p,q,0,398
1,20,female,right,Main,190,Valid,Arrow,Left,150,Left,q,q,1,418
1,20,female,right,Main,191,Invalid,Arrow,Right,150,Left,q,q,1,445
1,20,female,right,Main,192,Invalid,Arrow,Right,500,Left,q,q,1,521
1,20,female,right,Main,193,Invalid,Arrow,Right,750,Left,q,q,1,424
1,20,female,right,Main,194,Invalid,Arrow,Left,300,Right,p,p,1,317
1,20,female,right,Main,195,Valid,Arrow,Right,750,Right,p,p,1,332
1,20,female,right,Main,196,Valid,Arrow,Right,500,Right,p,p,1,356
1,20,female,right,Main,197,Invalid,Arrow,Left,500,Right,p,p,1,356
1,20,female,right,Main,198,Valid,Arrow,Left,500,Left,q,q,1,283
1,20,female,right,Main,199,Invalid,Arrow,Left,750,Right,p,p,1,259
1,20,female,right,Main,200,Valid,Arrow,Left,1000,Left,q,q,1,290
1,20,female,right,Main,201,Invalid,Arrow,Right,500,Left,q,q,1,476
1,20,female,right,Main,202,Valid,Arrow,Right,750,Right,p,p,1,253
1,20,female,right,Main,203,Valid,Arrow,Left,1000,Left,q,q,1,301
1,20,female,right,Main,204,Valid,Arrow,Right,300,Right,p,p,1,351
1,20,female,right,Main,205,Invalid,Arrow,Left,150,Right,p,p,1,324
1,20,female,right,Main,206,Invalid,Arrow,Left,1000,Right,p,p,1,249
1,20,female,right,Main,207,Valid,Arrow,Right,150,Right,p,p,1,282
1,20,female,right,Main,208,Valid,Arrow,Left,500,Left,q,q,1,277
1,20,female,right,Main,209,Invalid,Arrow,Right,750,Left,q,q,1,294
1,20,female,right,Main,210,Invalid,Arrow,Left,750,Right,p,p,1,206
1,20,female,right,Main,211,Invalid,Arrow,Right,150,Left,q,q,1,305
1,20,female,right,Main,212,Valid,Arrow,Left,300,Left,q,q,1,283
1,20,female,right,Main,213,Valid,Arrow,Left,750,Left,q,q,1,291
1,20,female,right,Main,214,Invalid,Arrow,Left,300,Right,p,p,1,293
1,20,female,right,Main,215,Invalid,Arrow,Right,1000,Left,q,q,1,412
1,20,female,right,Main,216,Invalid,Arrow,Right,300,Left,q,q,1,385
1,20,female,right,Main,217,Valid,Arrow,Left,150,Left,q,q,1,341
1,20,female,right,Main,218,Valid,Arrow,Right,500,Right,p,p,1,269
1,20,female,right,Main,219,Valid,Arrow,Right,1000,Right,p,p,1,372
1,20,female,right,Main,220,Invalid,Arrow,Left,500,Right,p,p,1,307
1,20,female,right,Main,221,Valid,Arrow,Right,750,Right,p,p,1,259
1,20,female,right,Main,222,Invalid,Arrow,Right,500,Left,q,q,1,326
1,20,female,right,Main,223,Invalid,Arrow,Right,1000,Left,q,q,1,1323
1,20,female,right,Main,224,Invalid,Arrow,Left,750,Right,p,p,1,315
1,20,female,right,Main,225,Valid,Arrow,Left,500,Left,q,q,1,372
1,20,female,right,Main,226,Invalid,Arrow,Right,150,Left,q,q,1,1880
1,20,female,right,Main,227,Valid,Arrow,Left,1000,Left,q,q,1,431
1,20,female,right,Main,228,Valid,Arrow,Right,150,Right,p,p,1,522
1,20,female,right,Main,229,Invalid,Arrow,Left,150,Right,p,p,1,352
1,20,female,right,Main,230,Valid,Arrow,Right,1000,Right,p,p,1,276
1,20,female,right,Main,231,Valid,Arrow,Right,500,Right,p,p,1,247
1,20,female,right,Main,232,Invalid,Arrow,Left,500,Right,p,p,1,370
1,20,female,right,Main,233,Valid,Arrow,Left,750,Left,q,q,1,279
1,20,female,right,Main,234,Invalid,Arrow,Right,750,Left,q,q,1,360
1,20,female,right,Main,235,Valid,Arrow,Left,150,Left,q,q,1,470
1,20,female,right,Main,236,Invalid,Arrow,Left,300,Right,p,p,1,329
1,20,female,right,Main,237,Invalid,Arrow,Left,1000,Right,p,q,0,398
1,20,female,right,Main,238,Valid,Arrow,Right,300,Right,p,p,1,490
1,20,female,right,Main,239,Valid,Arrow,Left,300,Left,q,q,1,396
1,20,female,right,Main,240,Invalid,Arrow,Right,300,Left,q,q,1,394
2,20,female,left,Prac,1,Valid,Face,Left,750,Left,q,q,1,77765
2,20,female,left,Prac,2,Invalid,Face,Right,500,Left,q,q,1,1159
2,20,female,left,Prac,3,Invalid,Face,Left,150,Right,p,p,1,1355
2,20,female,left,Prac,4,Valid,Arrow,Right,300,Right,p,p,1,1019
2,20,female,left,Prac,5,Invalid,Arrow,Right,150,Left,q,q,1,854
2,20,female,left,Prac,6,Invalid,Arrow,Left,1000,Right,p,p,1,1007
2,20,female,left,Prac,7,Invalid,Line,Right,750,Left,q,q,1,835
2,20,female,left,Prac,8,Valid,Line,Left,1000,Left,q,q,1,921
2,20,female,left,Prac,9,Valid,Line,Right,150,Right,p,p,1,945
2,20,female,left,Main,1,Valid,Face,Left,1000,Left,q,q,1,1233
2,20,female,left,Main,2,Invalid,Face,Right,500,Left,q,q,1,909
2,20,female,left,Main,3,Invalid,Face,Right,750,Left,q,q,1,715
2,20,female,left,Main,4,Invalid,Face,Left,1000,Right,p,p,1,838
2,20,female,left,Main,5,Invalid,Face,Left,750,Right,p,p,1,854
2,20,female,left,Main,6,Valid,Face,Left,150,Left,q,q,1,775
2,20,female,left,Main,7,Invalid,Face,Right,300,Left,q,q,1,684
2,20,female,left,Main,8,Valid,Face,Left,300,Left,q,q,1,677
2,20,female,left,Main,9,Invalid,Face,Right,150,Left,q,q,1,669
2,20,female,left,Main,10,Valid,Face,Right,300,Right,p,p,1,752
2,20,female,left,Main,11,Valid,Face,Right,150,Right,p,p,1,725
2,20,female,left,Main,12,Invalid,Face,Left,500,Right,p,p,1,870
2,20,female,left,Main,13,Invalid,Face,Left,150,Right,p,p,1,768
2,20,female,left,Main,14,Valid,Face,Left,500,Left,q,q,1,702
2,20,female,left,Main,15,Valid,Face,Right,500,Right,p,p,1,752
2,20,female,left,Main,16,Valid,Face,Left,750,Left,q,q,1,597
2,20,female,left,Main,17,Valid,Face,Right,750,Right,p,p,1,704
2,20,female,left,Main,18,Valid,Face,Right,1000,Right,p,p,1,701
2,20,female,left,Main,19,Invalid,Face,Right,1000,Left,q,q,1,667
2,20,female,left,Main,20,Invalid,Face,Left,300,Right,p,p,1,958
2,20,female,left,Main,21,Valid,Face,Right,150,Right,p,p,1,996
2,20,female,left,Main,22,Valid,Face,Left,500,Left,q,q,1,1235
2,20,female,left,Main,23,Valid,Face,Left,1000,Left,q,q,1,715
2,20,female,left,Main,24,Invalid,Face,Left,150,Right,p,p,1,731
2,20,female,left,Main,25,Valid,Face,Left,750,Left,q,q,1,706
2,20,female,left,Main,26,Valid,Face,Left,300,Left,q,q,1,652
2,20,female,left,Main,27,Invalid,Face,Left,500,Right,p,p,1,663
2,20,female,left,Main,28,Invalid,Face,Right,750,Left,q,q,1,671
2,20,female,left,Main,29,Invalid,Face,Right,150,Left,q,q,1,680
2,20,female,left,Main,30,Invalid,Face,Right,1000,Left,q,q,1,703
2,20,female,left,Main,31,Valid,Face,Right,750,Right,p,p,1,631
2,20,female,left,Main,32,Valid,Face,Left,150,Left,q,q,1,730
2,20,female,left,Main,33,Invalid,Face,Left,300,Right,p,p,1,698
2,20,female,left,Main,34,Valid,Face,Right,1000,Right,p,p,1,616
2,20,female,left,Main,35,Invalid,Face,Right,300,Left,q,q,1,678
2,20,female,left,Main,36,Valid,Face,Right,500,Right,p,p,1,664
2,20,female,left,Main,37,Invalid,Face,Left,750,Right,p,p,1,642
2,20,female,left,Main,38,Valid,Face,Right,300,Right,p,p,1,710
2,20,female,left,Main,39,Invalid,Face,Left,1000,Right,p,p,1,684
2,20,female,left,Main,40,Invalid,Face,Right,500,Left,q,q,1,622
2,20,female,left,Main,41,Valid,Face,Right,1000,Right,p,p,1,639
2,20,female,left,Main,42,Valid,Face,Right,300,Right,p,p,1,723
2,20,female,left,Main,43,Invalid,Face,Right,750,Left,q,q,1,707
2,20,female,left,Main,44,Invalid,Face,Right,150,Left,q,q,1,842
2,20,female,left,Main,45,Valid,Face,Right,500,Right,p,p,1,662
2,20,female,left,Main,46,Invalid,Face,Left,300,Right,p,p,1,674
2,20,female,left,Main,47,Valid,Face,Left,750,Left,q,q,1,627
2,20,female,left,Main,48,Invalid,Face,Right,500,Left,q,q,1,928
2,20,female,left,Main,49,Valid,Face,Left,300,Left,q,q,1,650
2,20,female,left,Main,50,Valid,Face,Right,150,Right,p,p,1,563
2,20,female,left,Main,51,Invalid,Face,Left,750,Right,p,p,1,473
2,20,female,left,Main,52,Valid,Face,Left,1000,Left,q,q,1,360
2,20,female,left,Main,53,Invalid,Face,Right,1000,Left,q,q,1,540
2,20,female,left,Main,54,Invalid,Face,Left,500,Right,p,p,1,549
2,20,female,left,Main,55,Valid,Face,Left,500,Left,q,q,1,435
2,20,female,left,Main,56,Valid,Face,Left,150,Left,q,q,1,501
2,20,female,left,Main,57,Valid,Face,Right,750,Right,p,p,1,357
2,20,female,left,Main,58,Invalid,Face,Right,300,Left,q,q,1,421
2,20,female,left,Main,59,Invalid,Face,Left,150,Right,p,p,1,400
2,20,female,left,Main,60,Invalid,Face,Left,1000,Right,p,p,1,378
2,20,female,left,Main,61,Valid,Face,Left,1000,Left,q,q,1,357
2,20,female,left,Main,62,Invalid,Face,Right,300,Left,q,q,1,405
2,20,female,left,Main,63,Invalid,Face,Left,150,Right,p,p,1,401
2,20,female,left,Main,64,Valid,Face,Right,300,Right,p,p,1,374
2,20,female,left,Main,65,Valid,Face,Left,500,Left,q,q,1,372
2,20,female,left,Main,66,Valid,Face,Right,500,Right,p,p,1,363
2,20,female,left,Main,67,Valid,Face,Left,750,Left,q,q,1,449
2,20,female,left,Main,68,Invalid,Face,Right,750,Left,q,q,1,419
2,20,female,left,Main,69,Invalid,Face,Left,750,Right,p,p,1,454
2,20,female,left,Main,70,Invalid,Face,Right,150,Left,q,q,1,568
2,20,female,left,Main,71,Invalid,Face,Left,1000,Right,p,p,1,491
2,20,female,left,Main,72,Valid,Face,Right,1000,Right,p,p,1,393
2,20,female,left,Main,73,Invalid,Face,Right,500,Left,q,q,1,519
2,20,female,left,Main,74,Valid,Face,Right,150,Right,p,p,1,494
2,20,female,left,Main,75,Valid,Face,Left,300,Left,q,q,1,440
2,20,female,left,Main,76,Valid,Face,Left,150,Left,q,q,1,507
2,20,female,left,Main,77,Invalid,Face,Left,500,Right,p,p,1,500
2,20,female,left,Main,78,Invalid,Face,Left,300,Right,p,p,1,446
2,20,female,left,Main,79,Valid,Face,Right,750,Right,p,p,1,465
2,20,female,left,Main,80,Invalid,Face,Right,1000,Left,q,q,1,528
2,20,female,left,Main,81,Invalid,Face,Left,300,Right,p,p,1,425
2,20,female,left,Main,82,Valid,Face,Left,300,Left,q,q,1,374
2,20,female,left,Main,83,Valid,Face,Left,150,Left,q,q,1,507
2,20,female,left,Main,84,Invalid,Face,Left,150,Right,p,p,1,418
2,20,female,left,Main,85,Valid,Face,Right,750,Right,p,p,1,405
2,20,female,left,Main,86,Invalid,Face,Left,750,Right,p,p,1,433
2,20,female,left,Main,87,Invalid,Face,Left,1000,Right,p,p,1,370
2,20,female,left,Main,88,Valid,Face,Right,1000,Right,p,p,1,326
2,20,female,left,Main,89,Invalid,Face,Right,1000,Left,q,q,1,419
2,20,female,left,Main,90,Invalid,Face,Left,500,Right,p,p,1,407
2,20,female,left,Main,91,Valid,Face,Left,500,Left,q,q,1,428
2,20,female,left,Main,92,Invalid,Face,Right,750,Left,q,q,1,432
2,20,female,left,Main,93,Valid,Face,Right,150,Right,p,p,1,362
2,20,female,left,Main,94,Invalid,Face,Right,150,Left,q,q,1,448
2,20,female,left,Main,95,Invalid,Face,Right,500,Left,q,q,1,444
2,20,female,left,Main,96,Valid,Face,Left,1000,Left,q,q,1,517
2,20,female,left,Main,97,Invalid,Face,Right,300,Left,q,q,1,510
2,20,female,left,Main,98,Valid,Face,Left,750,Left,q,q,1,342
2,20,female,left,Main,99,Valid,Face,Right,500,Right,p,p,1,342
2,20,female,left,Main,100,Valid,Face,Right,300,Right,p,p,1,382
2,20,female,left,Main,101,Valid,Face,Right,500,Right,p,p,1,509
2,20,female,left,Main,102,Invalid,Face,Left,1000,Right,p,p,1,387
2,20,female,left,Main,103,Valid,Face,Right,150,Right,p,p,1,567
2,20,female,left,Main,104,Invalid,Face,Left,750,Right,p,p,1,396
2,20,female,left,Main,105,Invalid,Face,Right,150,Left,q,q,1,456
2,20,female,left,Main,106,Invalid,Face,Left,300,Right,p,p,1,612
2,20,female,left,Main,107,Invalid,Face,Right,750,Left,q,q,1,400
2,20,female,left,Main,108,Valid,Face,Right,1000,Right,p,p,1,370
2,20,female,left,Main,109,Invalid,Face,Right,500,Left,q,q,1,473
2,20,female,left,Main,110,Invalid,Face,Left,150,Right,p,p,1,578
2,20,female,left,Main,111,Valid,Face,Left,150,Left,q,q,1,479
2,20,female,left,Main,112,Invalid,Face,Right,1000,Left,q,q,1,478
2,20,female,left,Main,113,Valid,Face,Right,300,Right,p,p,1,417
2,20,female,left,Main,114,Invalid,Face,Right,300,Left,q,q,1,494
2,20,female,left,Main,115,Invalid,Face,Left,500,Right,p,p,1,344
2,20,female,left,Main,116,Valid,Face,Left,1000,Left,q,q,1,405
2,20,female,left,Main,117,Valid,Face,Left,500,Left,q,q,1,411
2,20,female,left,Main,118,Valid,Face,Right,750,Right,p,p,1,318
2,20,female,left,Main,119,Valid,Face,Left,300,Left,q,q,1,454
2,20,female,left,Main,120,Valid,Face,Left,750,Left,q,q,1,424
2,20,female,left,Main,121,Valid,Face,Right,500,Right,p,p,1,429
2,20,female,left,Main,122,Valid,Face,Right,150,Right,p,p,1,479
2,20,female,left,Main,123,Valid,Face,Right,300,Right,p,p,1,418
2,20,female,left,Main,124,Valid,Face,Right,750,Right,p,p,1,309
2,20,female,left,Main,125,Valid,Face,Left,1000,Left,q,q,1,363
2,20,female,left,Main,126,Valid,Face,Left,750,Left,q,q,1,336
2,20,female,left,Main,127,Invalid,Face,Right,1000,Left,q,q,1,437
2,20,female,left,Main,128,Invalid,Face,Left,1000,Right,p,p,1,390
2,20,female,left,Main,129,Valid,Face,Left,150,Left,q,q,1,586
2,20,female,left,Main,130,Invalid,Face,Left,750,Right,p,p,1,718
2,20,female,left,Main,131,Invalid,Face,Right,500,Left,q,q,1,496
2,20,female,left,Main,132,Valid,Face,Right,1000,Right,p,p,1,382
2,20,female,left,Main,133,Invalid,Face,Left,150,Right,p,p,1,475
2,20,female,left,Main,134,Invalid,Face,Left,500,Right,p,p,1,454
2,20,female,left,Main,135,Invalid,Face,Left,300,Right,p,p,1,474
2,20,female,left,Main,136,Valid,Face,Left,500,Left,q,q,1,453
2,20,female,left,Main,137,Valid,Face,Left,300,Left,q,q,1,440
2,20,female,left,Main,138,Invalid,Face,Right,750,Left,q,q,1,435
2,20,female,left,Main,139,Invalid,Face,Right,300,Left,q,q,1,591
2,20,female,left,Main,140,Invalid,Face,Right,150,Left,q,q,1,587
2,20,female,left,Main,141,Invalid,Face,Left,750,Right,p,p,1,592
2,20,female,left,Main,142,Valid,Face,Right,750,Right,p,p,1,493
2,20,female,left,Main,143,Valid,Face,Left,1000,Left,q,q,1,379
2,20,female,left,Main,144,Invalid,Face,Right,150,Left,q,q,1,543
2,20,female,left,Main,145,Valid,Face,Left,300,Left,q,q,1,559
2,20,female,left,Main,146,Valid,Face,Right,150,Right,p,p,1,557
2,20,female,left,Main,147,Invalid,Face,Left,300,Right,p,p,1,533
2,20,female,left,Main,148,Valid,Face,Right,300,Right,p,p,1,605
2,20,female,left,Main,149,Invalid,Face,Right,300,Left,q,q,1,563
2,20,female,left,Main,150,Valid,Face,Right,1000,Right,p,p,1,487
2,20,female,left,Main,151,Invalid,Face,Right,750,Left,q,q,1,479
2,20,female,left,Main,152,Invalid,Face,Left,1000,Right,p,p,1,406
2,20,female,left,Main,153,Invalid,Face,Left,150,Right,p,p,1,418
2,20,female,left,Main,154,Invalid,Face,Right,500,Left,q,q,1,423
2,20,female,left,Main,155,Valid,Face,Left,150,Left,q,q,1,538
2,20,female,left,Main,156,Invalid,Face,Right,1000,Left,q,q,1,471
2,20,female,left,Main,157,Invalid,Face,Left,500,Right,p,p,1,402
2,20,female,left,Main,158,Valid,Face,Right,500,Right,p,p,1,415
2,20,female,left,Main,159,Valid,Face,Left,500,Left,q,q,1,485
2,20,female,left,Main,160,Valid,Face,Left,750,Left,q,q,1,405
2,20,female,left,Main,161,Valid,Face,Left,1000,Left,q,q,1,388
2,20,female,left,Main,162,Invalid,Face,Left,300,Right,p,p,1,419
2,20,female,left,Main,163,Valid,Face,Left,150,Left,q,q,1,438
2,20,female,left,Main,164,Invalid,Face,Right,500,Left,q,q,1,410
2,20,female,left,Main,165,Valid,Face,Left,750,Left,q,q,1,518
2,20,female,left,Main,166,Valid,Face,Left,500,Left,q,q,1,575
2,20,female,left,Main,167,Invalid,Face,Left,500,Right,p,p,1,438
2,20,female,left,Main,168,Valid,Face,Right,300,Right,p,p,1,354
2,20,female,left,Main,169,Invalid,Face,Left,750,Right,p,p,1,456
2,20,female,left,Main,170,Invalid,Face,Right,150,Left,q,q,1,498
2,20,female,left,Main,171,Valid,Face,Right,500,Right,p,p,1,363
2,20,female,left,Main,172,Invalid,Face,Left,1000,Right,p,p,1,487
2,20,female,left,Main,173,Valid,Face,Right,750,Right,p,p,1,495
2,20,female,left,Main,174,Invalid,Face,Right,750,Left,q,q,1,504
2,20,female,left,Main,175,Invalid,Face,Left,150,Right,p,p,1,560
2,20,female,left,Main,176,Valid,Face,Right,150,Right,p,p,1,485
2,20,female,left,Main,177,Valid,Face,Right,1000,Right,p,p,1,564
2,20,female,left,Main,178,Invalid,Face,Right,300,Left,q,q,1,683
2,20,female,left,Main,179,Valid,Face,Left,300,Left,q,q,1,750
2,20,female,left,Main,180,Invalid,Face,Right,1000,Left,q,q,1,554
2,20,female,left,Main,181,Invalid,Face,Left,750,Right,p,p,1,536
2,20,female,left,Main,182,Valid,Face,Right,500,Right,p,p,1,768
2,20,female,left,Main,183,Invalid,Face,Left,500,Right,p,p,1,495
2,20,female,left,Main,184,Invalid,Face,Right,750,Left,q,q,1,472
2,20,female,left,Main,185,Invalid,Face,Right,150,Left,q,q,1,649
2,20,female,left,Main,186,Valid,Face,Left,300,Left,q,q,1,516
2,20,female,left,Main,187,Invalid,Face,Right,1000,Left,q,q,1,626
2,20,female,left,Main,188,Valid,Face,Left,750,Left,q,q,1,533
2,20,female,left,Main,189,Invalid,Face,Left,1000,Right,p,p,1,418
2,20,female,left,Main,190,Valid,Face,Left,1000,Left,q,q,1,491
2,20,female,left,Main,191,Invalid,Face,Right,300,Left,q,q,1,541
2,20,female,left,Main,192,Valid,Face,Left,150,Left,q,q,1,619
2,20,female,left,Main,193,Valid,Face,Right,1000,Right,p,p,1,389
2,20,female,left,Main,194,Valid,Face,Right,300,Right,p,p,1,467
2,20,female,left,Main,195,Invalid,Face,Left,150,Right,p,p,1,412
2,20,female,left,Main,196,Valid,Face,Left,500,Left,q,q,1,394
2,20,female,left,Main,197,Valid,Face,Right,150,Right,p,p,1,605
2,20,female,left,Main,198,Invalid,Face,Right,500,Left,q,q,1,435
2,20,female,left,Main,199,Valid,Face,Right,750,Right,p,p,1,341
2,20,female,left,Main,200,Invalid,Face,Left,300,Right,p,p,1,453
2,20,female,left,Main,201,Valid,Face,Right,500,Right,p,p,1,385
2,20,female,left,Main,202,Valid,Face,Left,150,Left,q,q,1,517
2,20,female,left,Main,203,Invalid,Face,Right,1000,Left,q,q,1,555
2,20,female,left,Main,204,Invalid,Face,Right,500,Left,q,q,1,530
2,20,female,left,Main,205,Valid,Face,Right,750,Right,p,p,1,330
2,20,female,left,Main,206,Valid,Face,Left,750,Left,q,q,1,297
2,20,female,left,Main,207,Invalid,Face,Left,300,Right,p,p,1,379
2,20,female,left,Main,208,Valid,Face,Left,500,Left,q,q,1,354
2,20,female,left,Main,209,Invalid,Face,Left,500,Right,p,p,1,362
2,20,female,left,Main,210,Valid,Face,Right,300,Right,p,p,1,337
2,20,female,left,Main,211,Valid,Face,Left,300,Left,q,q,1,305
2,20,female,left,Main,212,Invalid,Face,Right,750,Left,q,q,1,369
2,20,female,left,Main,213,Invalid,Face,Left,150,Right,p,p,1,446
2,20,female,left,Main,214,Valid,Face,Right,150,Right,p,p,1,392
2,20,female,left,Main,215,Valid,Face,Right,1000,Right,p,p,1,355
2,20,female,left,Main,216,Invalid,Face,Right,300,Left,q,q,1,402
2,20,female,left,Main,217,Invalid,Face,Left,750,Right,p,p,1,342
2,20,female,left,Main,218,Invalid,Face,Left,1000,Right,p,p,1,379
2,20,female,left,Main,219,Valid,Face,Left,1000,Left,q,q,1,406
2,20,female,left,Main,220,Invalid,Face,Right,150,Left,q,q,1,482
2,20,female,left,Main,221,Valid,Face,Left,500,Left,q,q,1,357
2,20,female,left,Main,222,Invalid,Face,Right,500,Left,q,q,1,372
2,20,female,left,Main,223,Valid,Face,Right,300,Right,p,p,1,331
2,20,female,left,Main,224,Invalid,Face,Left,1000,Right,p,p,1,335
2,20,female,left,Main,225,Valid,Face,Left,1000,Left,q,q,1,380
2,20,female,left,Main,226,Valid,Face,Right,750,Right,p,p,1,313
2,20,female,left,Main,227,Invalid,Face,Right,300,Left,q,q,1,403
2,20,female,left,Main,228,Invalid,Face,Left,500,Right,p,p,1,376
2,20,female,left,Main,229,Valid,Face,Right,500,Right,p,p,1,375
2,20,female,left,Main,230,Invalid,Face,Right,750,Left,q,q,1,365
2,20,female,left,Main,231,Valid,Face,Left,150,Left,q,q,1,418
2,20,female,left,Main,232,Valid,Face,Right,1000,Right,p,p,1,331
2,20,female,left,Main,233,Valid,Face,Left,750,Left,q,q,1,362
2,20,female,left,Main,234,Invalid,Face,Right,150,Left,q,q,1,416
2,20,female,left,Main,235,Invalid,Face,Right,1000,Left,q,q,1,402
2,20,female,left,Main,236,Invalid,Face,Left,750,Right,p,p,1,358
2,20,female,left,Main,237,Valid,Face,Left,300,Left,q,q,1,453
2,20,female,left,Main,238,Invalid,Face,Left,300,Right,p,p,1,425
2,20,female,left,Main,239,Invalid,Face,Left,150,Right,p,p,1,412
2,20,female,left,Main,240,Valid,Face,Right,150,Right,p,p,1,335
2,20,female,left,Main,1,Invalid,Arrow,Right,300,Left,q,q,1,494
2,20,female,left,Main,2,Valid,Arrow,Right,300,Right,p,p,1,408
2,20,female,left,Main,3,Valid,Arrow,Left,500,Left,q,q,1,414
2,20,female,left,Main,4,Invalid,Arrow,Left,1000,Right,p,p,1,360
2,20,female,left,Main,5,Valid,Arrow,Right,1000,Right,p,p,1,364
2,20,female,left,Main,6,Valid,Arrow,Left,1000,Left,q,q,1,263
2,20,female,left,Main,7,Invalid,Arrow,Left,500,Right,p,p,1,426
2,20,female,left,Main,8,Invalid,Arrow,Left,300,Right,p,p,1,447
2,20,female,left,Main,9,Valid,Arrow,Right,150,Right,p,p,1,426
2,20,female,left,Main,10,Invalid,Arrow,Right,150,Left,q,q,1,492
2,20,female,left,Main,11,Invalid,Arrow,Right,750,Left,q,q,1,429
2,20,female,left,Main,12,Invalid,Arrow,Right,500,Left,q,q,1,426
2,20,female,left,Main,13,Valid,Arrow,Left,150,Left,q,q,1,549
2,20,female,left,Main,14,Invalid,Arrow,Left,150,Right,p,p,1,379
2,20,female,left,Main,15,Valid,Arrow,Right,500,Right,p,p,1,346
2,20,female,left,Main,16,Invalid,Arrow,Left,750,Right,p,p,1,449
2,20,female,left,Main,17,Valid,Arrow,Right,750,Right,p,p,1,379
2,20,female,left,Main,18,Valid,Arrow,Left,300,Left,q,q,1,338
2,20,female,left,Main,19,Valid,Arrow,Left,750,Left,q,q,1,401
2,20,female,left,Main,20,Invalid,Arrow,Right,1000,Left,q,q,1,394
2,20,female,left,Main,21,Invalid,Arrow,Left,750,Right,p,p,1,311
2,20,female,left,Main,22,Invalid,Arrow,Right,300,Left,q,q,1,392
2,20,female,left,Main,23,Valid,Arrow,Left,150,Left,q,q,1,445
2,20,female,left,Main,24,Invalid,Arrow,Left,1000,Right,p,p,1,317
2,20,female,left,Main,25,Invalid,Arrow,Right,1000,Left,q,q,1,395
2,20,female,left,Main,26,Invalid,Arrow,Left,300,Right,p,p,1,385
2,20,female,left,Main,27,Valid,Arrow,Left,750,Left,q,q,1,382
2,20,female,left,Main,28,Valid,Arrow,Right,1000,Right,p,p,1,265
2,20,female,left,Main,29,Valid,Arrow,Left,300,Left,q,q,1,397
2,20,female,left,Main,30,Valid,Arrow,Right,500,Right,p,p,1,315
2,20,female,left,Main,31,Invalid,Arrow,Right,750,Left,q,q,1,291
2,20,female,left,Main,32,Invalid,Arrow,Left,500,Right,p,p,1,405
2,20,female,left,Main,33,Valid,Arrow,Right,300,Right,p,p,1,427
2,20,female,left,Main,34,Valid,Arrow,Right,150,Right,p,p,1,653
2,20,female,left,Main,35,Valid,Arrow,Right,750,Right,p,p,1,310
2,20,female,left,Main,36,Invalid,Arrow,Left,150,Right,p,p,1,454
2,20,female,left,Main,37,Valid,Arrow,Left,500,Left,q,q,1,346
2,20,female,left,Main,38,Invalid,Arrow,Right,150,Left,q,q,1,440
2,20,female,left,Main,39,Invalid,Arrow,Right,500,Left,q,q,1,372
2,20,female,left,Main,40,Valid,Arrow,Left,1000,Left,q,q,1,328
2,20,female,left,Main,41,Valid,Arrow,Left,750,Left,q,q,1,351
2,20,female,left,Main,42,Valid,Arrow,Left,500,Left,q,q,1,310
2,20,female,left,Main,43,Invalid,Arrow,Right,750,Left,q,q,1,382
2,20,female,left,Main,44,Invalid,Arrow,Left,1000,Right,p,p,1,425
2,20,female,left,Main,45,Valid,Arrow,Left,1000,Left,q,q,1,379
2,20,female,left,Main,46,Valid,Arrow,Left,300,Left,q,q,1,409
2,20,female,left,Main,47,Valid,Arrow,Right,500,Right,p,p,1,303
2,20,female,left,Main,48,Invalid,Arrow,Right,1000,Left,q,q,1,389
2,20,female,left,Main,49,Invalid,Arrow,Left,500,Right,p,p,1,363
2,20,female,left,Main,50,Invalid,Arrow,Left,150,Right,p,p,1,417
2,20,female,left,Main,51,Valid,Arrow,Right,750,Right,p,p,1,341
2,20,female,left,Main,52,Invalid,Arrow,Left,750,Right,p,p,1,339
2,20,female,left,Main,53,Valid,Arrow,Right,150,Right,p,p,1,369
2,20,female,left,Main,54,Invalid,Arrow,Left,300,Right,p,p,1,408
2,20,female,left,Main,55,Invalid,Arrow,Right,500,Left,q,q,1,398
2,20,female,left,Main,56,Valid,Arrow,Right,300,Right,p,p,1,316
2,20,female,left,Main,57,Invalid,Arrow,Right,150,Left,q,q,1,500
2,20,female,left,Main,58,Valid,Arrow,Left,150,Left,q,q,1,444
2,20,female,left,Main,59,Invalid,Arrow,Right,300,Left,q,q,1,488
2,20,female,left,Main,60,Valid,Arrow,Right,1000,Right,p,p,1,415
2,20,female,left,Main,61,Valid,Arrow,Right,500,Right,p,p,1,341
2,20,female,left,Main,62,Invalid,Arrow,Right,500,Left,q,q,1,372
2,20,female,left,Main,63,Invalid,Arrow,Right,750,Left,q,q,1,385
2,20,female,left,Main,64,Valid,Arrow,Right,1000,Right,p,p,1,292
2,20,female,left,Main,65,Invalid,Arrow,Left,150,Right,p,p,1,412
2,20,female,left,Main,66,Invalid,Arrow,Left,300,Right,p,p,1,418
2,20,female,left,Main,67,Valid,Arrow,Left,750,Left,q,q,1,301
2,20,female,left,Main,68,Valid,Arrow,Right,750,Right,p,p,1,332
2,20,female,left,Main,69,Valid,Arrow,Left,150,Left,q,q,1,491
2,20,female,left,Main,70,Invalid,Arrow,Right,150,Left,q,q,1,404
2,20,female,left,Main,71,Invalid,Arrow,Left,750,Right,p,p,1,359
2,20,female,left,Main,72,Valid,Arrow,Left,1000,Left,q,q,1,395
2,20,female,left,Main,73,Invalid,Arrow,Left,1000,Right,p,p,1,374
2,20,female,left,Main,74,Valid,Arrow,Left,300,Left,q,q,1,389
2,20,female,left,Main,75,Invalid,Arrow,Right,1000,Left,q,q,1,455
2,20,female,left,Main,76,Invalid,Arrow,Right,300,Left,q,q,1,435
2,20,female,left,Main,77,Valid,Arrow,Right,300,Right,p,p,1,359
2,20,female,left,Main,78,Valid,Arrow,Left,500,Left,q,q,1,343
2,20,female,left,Main,79,Valid,Arrow,Right,150,Right,p,p,1,365
2,20,female,left,Main,80,Invalid,Arrow,Left,500,Right,p,p,1,421
2,20,female,left,Main,81,Valid,Arrow,Right,750,Right,p,p,1,340
2,20,female,left,Main,82,Invalid,Arrow,Left,150,Right,p,p,1,506
2,20,female,left,Main,83,Valid,Arrow,Left,500,Left,q,q,1,332
2,20,female,left,Main,84,Invalid,Arrow,Left,300,Right,p,p,1,373
2,20,female,left,Main,85,Valid,Arrow,Left,1000,Left,q,q,1,432
2,20,female,left,Main,86,Valid,Arrow,Left,300,Left,q,q,1,589
2,20,female,left,Main,87,Valid,Arrow,Right,300,Right,p,p,1,380
2,20,female,left,Main,88,Valid,Arrow,Left,150,Left,q,q,1,359
2,20,female,left,Main,89,Valid,Arrow,Right,500,Right,p,p,1,303
2,20,female,left,Main,90,Invalid,Arrow,Right,750,Left,q,q,1,367
2,20,female,left,Main,91,Invalid,Arrow,Left,500,Right,p,p,1,334
2,20,female,left,Main,92,Invalid,Arrow,Right,300,Left,q,q,1,390
2,20,female,left,Main,93,Invalid,Arrow,Right,150,Left,q,q,1,626
2,20,female,left,Main,94,Invalid,Arrow,Right,1000,Left,q,q,1,420
2,20,female,left,Main,95,Valid,Arrow,Right,1000,Right,p,p,1,333
2,20,female,left,Main,96,Invalid,Arrow,Left,1000,Right,p,p,1,538
2,20,female,left,Main,97,Valid,Arrow,Left,750,Left,q,q,1,401
2,20,female,left,Main,98,Invalid,Arrow,Left,750,Right,p,p,1,356
2,20,female,left,Main,99,Invalid,Arrow,Right,500,Left,q,q,1,444
2,20,female,left,Main,100,Valid,Arrow,Right,150,Right,p,p,1,486
2,20,female,left,Main,101,Invalid,Arrow,Left,500,Right,p,p,1,433
2,20,female,left,Main,102,Invalid,Arrow,Right,1000,Left,q,q,1,426
2,20,female,left,Main,103,Valid,Arrow,Left,300,Left,q,q,1,431
2,20,female,left,Main,104,Valid,Arrow,Right,500,Right,p,p,1,324
2,20,female,left,Main,105,Valid,Arrow,Left,1000,Left,q,q,1,337
2,20,female,left,Main,106,Invalid,Arrow,Right,300,Left,q,q,1,457
2,20,female,left,Main,107,Valid,Arrow,Left,500,Left,q,q,1,325
2,20,female,left,Main,108,Valid,Arrow,Right,1000,Right,p,p,1,394
2,20,female,left,Main,109,Valid,Arrow,Right,150,Right,p,p,1,415
2,20,female,left,Main,110,Invalid,Arrow,Left,750,Right,p,p,1,426
2,20,female,left,Main,111,Valid,Arrow,Right,750,Right,p,p,1,398
2,20,female,left,Main,112,Valid,Arrow,Right,300,Right,p,p,1,444
2,20,female,left,Main,113,Invalid,Arrow,Right,750,Left,q,q,1,454
2,20,female,left,Main,114,Invalid,Arrow,Right,500,Left,q,q,1,394
2,20,female,left,Main,115,Invalid,Arrow,Left,300,Right,p,p,1,440
2,20,female,left,Main,116,Invalid,Arrow,Right,150,Left,q,q,1,434
2,20,female,left,Main,117,Valid,Arrow,Left,750,Left,q,q,1,364
2,20,female,left,Main,118,Invalid,Arrow,Left,150,Right,p,p,1,418
2,20,female,left,Main,119,Invalid,Arrow,Left,1000,Right,p,p,1,403
2,20,female,left,Main,120,Valid,Arrow,Left,150,Left,q,q,1,414
2,20,female,left,Main,121,Valid,Arrow,Left,300,Left,q,q,1,348
2,20,female,left,Main,122,Invalid,Arrow,Right,500,Left,q,q,1,388
2,20,female,left,Main,123,Invalid,Arrow,Left,150,Right,p,p,1,361
2,20,female,left,Main,124,Valid,Arrow,Left,150,Left,q,q,1,374
2,20,female,left,Main,125,Valid,Arrow,Left,500,Left,q,q,1,373
2,20,female,left,Main,126,Invalid,Arrow,Left,500,Right,p,p,1,388
2,20,female,left,Main,127,Invalid,Arrow,Left,1000,Right,p,p,1,407
2,20,female,left,Main,128,Invalid,Arrow,Left,750,Right,p,p,1,371
2,20,female,left,Main,129,Invalid,Arrow,Right,150,Left,q,q,1,367
2,20,female,left,Main,130,Valid,Arrow,Right,300,Right,p,p,1,302
2,20,female,left,Main,131,Valid,Arrow,Right,500,Right,p,p,1,320
2,20,female,left,Main,132,Invalid,Arrow,Right,300,Left,q,q,1,393
2,20,female,left,Main,133,Valid,Arrow,Left,1000,Left,q,q,1,387
2,20,female,left,Main,134,Invalid,Arrow,Left,300,Right,p,p,1,394
2,20,female,left,Main,135,Invalid,Arrow,Right,750,Left,q,q,1,350
2,20,female,left,Main,136,Invalid,Arrow,Right,1000,Left,q,q,1,395
2,20,female,left,Main,137,Valid,Arrow,Right,150,Right,p,p,1,407
2,20,female,left,Main,138,Valid,Arrow,Right,750,Right,p,p,1,347
2,20,female,left,Main,139,Valid,Arrow,Right,1000,Right,p,p,1,343
2,20,female,left,Main,140,Valid,Arrow,Left,750,Left,q,q,1,398
2,20,female,left,Main,141,Valid,Arrow,Left,150,Left,q,q,1,442
2,20,female,left,Main,142,Valid,Arrow,Right,750,Right,p,p,1,388
2,20,female,left,Main,143,Invalid,Arrow,Left,500,Right,p,p,1,450
2,20,female,left,Main,144,Invalid,Arrow,Right,300,Left,q,q,1,351
2,20,female,left,Main,145,Invalid,Arrow,Right,150,Left,q,q,1,468
2,20,female,left,Main,146,Valid,Arrow,Right,1000,Right,p,p,1,315
2,20,female,left,Main,147,Valid,Arrow,Left,1000,Left,q,q,1,313
2,20,female,left,Main,148,Valid,Arrow,Left,750,Left,q,q,1,345
2,20,female,left,Main,149,Valid,Arrow,Right,150,Right,p,p,1,431
2,20,female,left,Main,150,Valid,Arrow,Left,300,Left,q,q,1,348
2,20,female,left,Main,151,Invalid,Arrow,Right,750,Left,q,q,1,434
2,20,female,left,Main,152,Invalid,Arrow,Right,1000,Left,q,q,1,395
2,20,female,left,Main,153,Invalid,Arrow,Left,1000,Right,p,p,1,365
2,20,female,left,Main,154,Invalid,Arrow,Left,300,Right,p,p,1,429
2,20,female,left,Main,155,Valid,Arrow,Right,300,Right,p,p,1,482
2,20,female,left,Main,156,Invalid,Arrow,Left,150,Right,p,p,1,403
2,20,female,left,Main,157,Invalid,Arrow,Left,750,Right,p,p,1,391
2,20,female,left,Main,158,Valid,Arrow,Right,500,Right,p,p,1,341
2,20,female,left,Main,159,Valid,Arrow,Left,500,Left,q,q,1,349
2,20,female,left,Main,160,Invalid,Arrow,Right,500,Left,q,q,1,414
2,20,female,left,Main,161,Valid,Arrow,Left,1000,Left,q,q,1,336
2,20,female,left,Main,162,Valid,Arrow,Left,150,Left,q,q,1,366
2,20,female,left,Main,163,Invalid,Arrow,Left,1000,Right,p,p,1,394
2,20,female,left,Main,164,Valid,Arrow,Right,1000,Right,p,p,1,356
2,20,female,left,Main,165,Invalid,Arrow,Left,500,Right,p,p,1,364
2,20,female,left,Main,166,Valid,Arrow,Right,300,Right,p,p,1,460
2,20,female,left,Main,167,Invalid,Arrow,Left,300,Right,p,p,1,407
2,20,female,left,Main,168,Invalid,Arrow,Right,300,Left,q,q,1,461
2,20,female,left,Main,169,Valid,Arrow,Right,750,Right,p,p,1,311
2,20,female,left,Main,170,Invalid,Arrow,Right,500,Left,q,q,1,335
2,20,female,left,Main,171,Valid,Arrow,Right,500,Right,p,p,1,288
2,20,female,left,Main,172,Valid,Arrow,Right,150,Right,p,p,1,368
2,20,female,left,Main,173,Valid,Arrow,Left,300,Left,q,q,1,327
2,20,female,left,Main,174,Invalid,Arrow,Right,750,Left,q,q,1,486
2,20,female,left,Main,175,Invalid,Arrow,Left,150,Right,p,p,1,350
2,20,female,left,Main,176,Invalid,Arrow,Right,1000,Left,q,q,1,354
2,20,female,left,Main,177,Valid,Arrow,Left,750,Left,q,q,1,392
2,20,female,left,Main,178,Invalid,Arrow,Right,150,Left,q,q,1,468
2,20,female,left,Main,179,Invalid,Arrow,Left,750,Right,p,p,1,389
2,20,female,left,Main,180,Valid,Arrow,Left,500,Left,q,q,1,380
2,20,female,left,Main,181,Valid,Arrow,Right,1000,Right,p,p,1,263
2,20,female,left,Main,182,Valid,Arrow,Left,500,Left,q,q,1,346
2,20,female,left,Main,183,Invalid,Arrow,Left,1000,Right,p,p,1,327
2,20,female,left,Main,184,Invalid,Arrow,Right,300,Left,q,q,1,352
2,20,female,left,Main,185,Invalid,Arrow,Left,150,Right,p,p,1,445
2,20,female,left,Main,186,Valid,Arrow,Left,150,Left,q,q,1,368
2,20,female,left,Main,187,Invalid,Arrow,Right,750,Left,q,q,1,325
2,20,female,left,Main,188,Invalid,Arrow,Left,500,Right,p,p,1,358
2,20,female,left,Main,189,Valid,Arrow,Left,300,Left,q,q,1,325
2,20,female,left,Main,190,Valid,Arrow,Right,750,Right,p,p,1,277
2,20,female,left,Main,191,Invalid,Arrow,Right,500,Left,q,q,1,375
2,20,female,left,Main,192,Invalid,Arrow,Left,750,Right,p,p,1,349
2,20,female,left,Main,193,Invalid,Arrow,Right,1000,Left,q,q,1,337
2,20,female,left,Main,194,Valid,Arrow,Right,150,Right,p,p,1,375
2,20,female,left,Main,195,Valid,Arrow,Right,300,Right,p,p,1,430
2,20,female,left,Main,196,Invalid,Arrow,Right,150,Left,q,q,1,417
2,20,female,left,Main,197,Valid,Arrow,Left,1000,Left,q,q,1,346
2,20,female,left,Main,198,Valid,Arrow,Left,750,Left,q,q,1,362
2,20,female,left,Main,199,Valid,Arrow,Right,500,Right,p,p,1,272
2,20,female,left,Main,200,Invalid,Arrow,Left,300,Right,p,p,1,435
2,20,female,left,Main,201,Valid,Arrow,Left,750,Left,q,q,1,294
2,20,female,left,Main,202,Invalid,Arrow,Left,300,Right,p,p,1,352
2,20,female,left,Main,203,Invalid,Arrow,Left,500,Right,p,p,1,376
2,20,female,left,Main,204,Invalid,Arrow,Right,750,Left,q,q,1,389
2,20,female,left,Main,205,Valid,Arrow,Left,500,Left,q,q,1,347
2,20,female,left,Main,206,Valid,Arrow,Left,150,Left,q,q,1,441
2,20,female,left,Main,207,Valid,Arrow,Right,750,Right,p,p,1,292
2,20,female,left,Main,208,Invalid,Arrow,Right,300,Left,q,q,1,334
2,20,female,left,Main,209,Invalid,Arrow,Right,500,Left,q,q,1,430
2,20,female,left,Main,210,Valid,Arrow,Left,300,Left,q,q,1,451
2,20,female,left,Main,211,Invalid,Arrow,Left,150,Right,p,p,1,381
2,20,female,left,Main,212,Valid,Arrow,Left,1000,Left,q,q,1,336
2,20,female,left,Main,213,Valid,Arrow,Right,300,Right,p,p,1,304
2,20,female,left,Main,214,Invalid,Arrow,Right,1000,Left,q,q,1,342
2,20,female,left,Main,215,Valid,Arrow,Right,150,Right,p,p,1,364
2,20,female,left,Main,216,Valid,Arrow,Right,500,Right,p,p,1,324
2,20,female,left,Main,217,Invalid,Arrow,Left,1000,Right,p,p,1,393
2,20,female,left,Main,218,Invalid,Arrow,Right,150,Left,q,q,1,414
2,20,female,left,Main,219,Invalid,Arrow,Left,750,Right,p,p,1,345
2,20,female,left,Main,220,Valid,Arrow,Right,1000,Right,p,p,1,358
2,20,female,left,Main,221,Valid,Arrow,Left,500,Left,q,q,1,333
2,20,female,left,Main,222,Valid,Arrow,Right,150,Right,p,p,1,428
2,20,female,left,Main,223,Invalid,Arrow,Right,1000,Left,q,q,1,318
2,20,female,left,Main,224,Valid,Arrow,Left,150,Left,q,q,1,388
2,20,female,left,Main,225,Invalid,Arrow,Right,500,Left,q,q,1,434
2,20,female,left,Main,226,Valid,Arrow,Left,750,Left,q,q,1,373
2,20,female,left,Main,227,Valid,Arrow,Right,300,Right,p,p,1,339
2,20,female,left,Main,228,Valid,Arrow,Right,500,Right,p,p,1,388
2,20,female,left,Main,229,Invalid,Arrow,Left,1000,Right,p,p,1,390
2,20,female,left,Main,230,Invalid,Arrow,Right,300,Left,q,q,1,380
2,20,female,left,Main,231,Invalid,Arrow,Left,500,Right,p,p,1,331
2,20,female,left,Main,232,Valid,Arrow,Right,1000,Right,p,p,1,353
2,20,female,left,Main,233,Valid,Arrow,Left,1000,Left,q,q,1,453
2,20,female,left,Main,234,Invalid,Arrow,Left,300,Right,p,p,1,344
2,20,female,left,Main,235,Invalid,Arrow,Right,750,Left,q,q,1,383
2,20,female,left,Main,236,Invalid,Arrow,Right,150,Left,q,q,1,540
2,20,female,left,Main,237,Invalid,Arrow,Left,750,Right,p,p,1,370
2,20,female,left,Main,238,Valid,Arrow,Right,750,Right,p,q,0,455
2,20,female,left,Main,239,Invalid,Arrow,Left,150,Right,p,p,1,425
2,20,female,left,Main,240,Valid,Arrow,Left,300,Left,q,q,1,342
2,20,female,left,Main,1,Invalid,Line,Right,150,Left,q,q,1,591
2,20,female,left,Main,2,Valid,Line,Left,500,Left,q,q,1,558
2,20,female,left,Main,3,Valid,Line,Left,1000,Left,q,q,1,418
2,20,female,left,Main,4,Valid,Line,Right,1000,Right,p,p,1,435
2,20,female,left,Main,5,Valid,Line,Left,150,Left,q,q,1,437
2,20,female,left,Main,6,Invalid,Line,Right,300,Left,q,q,1,458
2,20,female,left,Main,7,Invalid,Line,Left,750,Right,p,p,1,371
2,20,female,left,Main,8,Invalid,Line,Left,150,Right,p,p,1,471
2,20,female,left,Main,9,Valid,Line,Left,300,Left,q,q,1,370
2,20,female,left,Main,10,Invalid,Line,Left,300,Right,p,p,1,521
2,20,female,left,Main,11,Valid,Line,Right,500,Right,p,p,1,362
2,20,female,left,Main,12,Invalid,Line,Right,750,Left,q,q,1,344
2,20,female,left,Main,13,Valid,Line,Left,750,Left,q,q,1,375
2,20,female,left,Main,14,Valid,Line,Right,300,Right,p,p,1,373
2,20,female,left,Main,15,Invalid,Line,Right,1000,Left,q,q,1,753
2,20,female,left,Main,16,Invalid,Line,Right,500,Left,q,q,1,432
2,20,female,left,Main,17,Invalid,Line,Left,500,Right,p,p,1,350
2,20,female,left,Main,18,Valid,Line,Right,750,Right,p,p,1,324
2,20,female,left,Main,19,Valid,Line,Right,150,Right,p,p,1,403
2,20,female,left,Main,20,Invalid,Line,Left,1000,Right,p,p,1,373
2,20,female,left,Main,21,Invalid,Line,Right,150,Left,q,q,1,514
2,20,female,left,Main,22,Valid,Line,Left,300,Left,q,q,1,403
2,20,female,left,Main,23,Invalid,Line,Left,500,Right,p,p,1,353
2,20,female,left,Main,24,Valid,Line,Right,1000,Right,p,p,1,365
2,20,female,left,Main,25,Invalid,Line,Left,150,Right,p,p,1,402
2,20,female,left,Main,26,Invalid,Line,Right,500,Left,q,q,1,368
2,20,female,left,Main,27,Valid,Line,Right,300,Right,p,p,1,391
2,20,female,left,Main,28,Invalid,Line,Left,750,Right,p,p,1,308
2,20,female,left,Main,29,Invalid,Line,Right,1000,Left,q,q,1,361
2,20,female,left,Main,30,Valid,Line,Right,500,Right,p,p,1,377
2,20,female,left,Main,31,Valid,Line,Left,1000,Left,q,q,1,340
2,20,female,left,Main,32,Valid,Line,Left,750,Left,q,q,1,371
2,20,female,left,Main,33,Valid,Line,Right,750,Right,p,p,1,376
2,20,female,left,Main,34,Valid,Line,Left,150,Left,q,q,1,484
2,20,female,left,Main,35,Invalid,Line,Left,1000,Right,p,p,1,338
2,20,female,left,Main,36,Invalid,Line,Left,300,Right,p,p,1,435
2,20,female,left,Main,37,Invalid,Line,Right,750,Left,q,q,1,365
2,20,female,left,Main,38,Invalid,Line,Right,300,Left,q,q,1,397
2,20,female,left,Main,39,Valid,Line,Left,500,Left,q,q,1,347
2,20,female,left,Main,40,Valid,Line,Right,150,Right,p,p,1,417
2,20,female,left,Main,41,Invalid,Line,Left,150,Right,p,p,1,428
2,20,female,left,Main,42,Valid,Line,Right,150,Right,p,p,1,359
2,20,female,left,Main,43,Valid,Line,Left,300,Left,q,q,1,343
2,20,female,left,Main,44,Invalid,Line,Left,1000,Right,p,p,1,371
2,20,female,left,Main,45,Valid,Line,Left,750,Left,q,q,1,336
2,20,female,left,Main,46,Valid,Line,Right,1000,Right,p,p,1,349
2,20,female,left,Main,47,Invalid,Line,Right,1000,Left,q,q,1,377
2,20,female,left,Main,48,Invalid,Line,Right,150,Left,q,q,1,438
2,20,female,left,Main,49,Valid,Line,Left,150,Left,q,q,1,432
2,20,female,left,Main,50,Invalid,Line,Left,500,Right,p,p,1,382
2,20,female,left,Main,51,Invalid,Line,Right,500,Left,q,q,1,349
2,20,female,left,Main,52,Valid,Line,Right,300,Right,p,p,1,405
2,20,female,left,Main,53,Valid,Line,Left,500,Left,q,q,1,323
2,20,female,left,Main,54,Valid,Line,Right,750,Right,p,p,1,330
2,20,female,left,Main,55,Invalid,Line,Left,300,Right,p,p,1,451
2,20,female,left,Main,56,Valid,Line,Left,1000,Left,q,q,1,362
2,20,female,left,Main,57,Valid,Line,Right,500,Right,p,p,1,314
2,20,female,left,Main,58,Invalid,Line,Right,750,Left,q,q,1,378
2,20,female,left,Main,59,Invalid,Line,Right,300,Left,q,q,1,529
2,20,female,left,Main,60,Invalid,Line,Left,750,Right,p,p,1,344
2,20,female,left,Main,61,Valid,Line,Right,300,Right,p,p,1,423
2,20,female,left,Main,62,Invalid,Line,Left,150,Right,p,p,1,427
2,20,female,left,Main,63,Invalid,Line,Left,1000,Right,p,p,1,411
2,20,female,left,Main,64,Valid,Line,Left,300,Left,q,q,1,393
2,20,female,left,Main,65,Valid,Line,Right,150,Right,p,p,1,357
2,20,female,left,Main,66,Valid,Line,Left,500,Left,q,q,1,333
2,20,female,left,Main,67,Invalid,Line,Left,750,Right,p,p,1,340
2,20,female,left,Main,68,Valid,Line,Left,750,Left,q,q,1,331
2,20,female,left,Main,69,Valid,Line,Right,750,Right,p,p,1,402
2,20,female,left,Main,70,Invalid,Line,Left,500,Right,p,p,1,527
2,20,female,left,Main,71,Invalid,Line,Right,300,Left,q,q,1,536
2,20,female,left,Main,72,Invalid,Line,Right,150,Left,q,q,1,591
2,20,female,left,Main,73,Valid,Line,Left,150,Left,q,q,1,443
2,20,female,left,Main,74,Valid,Line,Right,500,Right,p,p,1,319
2,20,female,left,Main,75,Valid,Line,Left,1000,Left,q,q,1,332
2,20,female,left,Main,76,Valid,Line,Right,1000,Right,p,p,1,346
2,20,female,left,Main,77,Invalid,Line,Right,1000,Left,q,q,1,406
2,20,female,left,Main,78,Invalid,Line,Left,300,Right,p,p,1,468
2,20,female,left,Main,79,Invalid,Line,Right,500,Left,q,q,1,423
2,20,female,left,Main,80,Invalid,Line,Right,750,Left,q,q,1,458
2,20,female,left,Main,81,Valid,Line,Right,500,Right,p,p,1,510
2,20,female,left,Main,82,Invalid,Line,Right,500,Left,q,q,1,408
2,20,female,left,Main,83,Invalid,Line,Right,300,Left,q,q,1,413
2,20,female,left,Main,84,Invalid,Line,Left,300,Right,p,p,1,419
2,20,female,left,Main,85,Valid,Line,Left,500,Left,q,q,1,432
2,20,female,left,Main,86,Invalid,Line,Right,150,Left,q,q,1,507
2,20,female,left,Main,87,Valid,Line,Right,1000,Right,p,p,1,320
2,20,female,left,Main,88,Invalid,Line,Left,1000,Right,p,p,1,397
2,20,female,left,Main,89,Valid,Line,Left,750,Left,q,q,1,346
2,20,female,left,Main,90,Invalid,Line,Left,150,Right,p,p,1,544
2,20,female,left,Main,91,Invalid,Line,Left,750,Right,p,p,1,542
2,20,female,left,Main,92,Invalid,Line,Left,500,Right,p,p,1,407
2,20,female,left,Main,93,Invalid,Line,Right,750,Left,q,q,1,443
2,20,female,left,Main,94,Invalid,Line,Right,1000,Left,q,q,1,483
2,20,female,left,Main,95,Valid,Line,Right,300,Right,p,p,1,373
2,20,female,left,Main,96,Valid,Line,Right,150,Right,p,p,1,578
2,20,female,left,Main,97,Valid,Line,Left,1000,Left,q,q,1,318
2,20,female,left,Main,98,Valid,Line,Left,150,Left,q,q,1,524
2,20,female,left,Main,99,Valid,Line,Left,300,Left,q,q,1,437
2,20,female,left,Main,100,Valid,Line,Right,750,Right,p,p,1,312
2,20,female,left,Main,101,Invalid,Line,Left,500,Right,p,p,1,418
2,20,female,left,Main,102,Invalid,Line,Right,300,Left,q,q,1,471
2,20,female,left,Main,103,Invalid,Line,Left,1000,Right,p,p,1,366
2,20,female,left,Main,104,Invalid,Line,Left,750,Right,p,p,1,444
2,20,female,left,Main,105,Invalid,Line,Right,150,Left,q,q,1,454
2,20,female,left,Main,106,Invalid,Line,Right,1000,Left,q,q,1,478
2,20,female,left,Main,107,Invalid,Line,Left,150,Right,p,p,1,479
2,20,female,left,Main,108,Valid,Line,Left,500,Left,q,q,1,386
2,20,female,left,Main,109,Valid,Line,Right,300,Right,p,p,1,384
2,20,female,left,Main,110,Valid,Line,Right,750,Right,p,p,1,404
2,20,female,left,Main,111,Invalid,Line,Left,300,Right,p,p,1,378
2,20,female,left,Main,112,Invalid,Line,Right,500,Left,q,q,1,353
2,20,female,left,Main,113,Valid,Line,Left,300,Left,q,q,1,465
2,20,female,left,Main,114,Valid,Line,Right,1000,Right,p,p,1,369
2,20,female,left,Main,115,Valid,Line,Right,500,Right,p,p,1,407
2,20,female,left,Main,116,Valid,Line,Left,150,Left,q,q,1,418
2,20,female,left,Main,117,Invalid,Line,Right,750,Left,q,q,1,453
2,20,female,left,Main,118,Valid,Line,Left,1000,Left,q,q,1,421
2,20,female,left,Main,119,Valid,Line,Right,150,Right,p,p,1,456
2,20,female,left,Main,120,Valid,Line,Left,750,Left,q,q,1,434
2,20,female,left,Main,121,Valid,Line,Right,300,Right,p,p,1,398
2,20,female,left,Main,122,Valid,Line,Right,150,Right,p,p,1,611
2,20,female,left,Main,123,Invalid,Line,Left,150,Right,p,p,1,430
2,20,female,left,Main,124,Valid,Line,Right,1000,Right,p,p,1,423
2,20,female,left,Main,125,Valid,Line,Right,500,Right,p,p,1,412
2,20,female,left,Main,126,Invalid,Line,Left,500,Right,p,p,1,418
2,20,female,left,Main,127,Valid,Line,Left,300,Left,q,q,1,479
2,20,female,left,Main,128,Invalid,Line,Left,750,Right,p,p,1,384
2,20,female,left,Main,129,Valid,Line,Right,750,Right,p,p,1,445
2,20,female,left,Main,130,Invalid,Line,Left,300,Right,p,p,1,489
2,20,female,left,Main,131,Valid,Line,Left,500,Left,q,q,1,467
2,20,female,left,Main,132,Invalid,Line,Right,1000,Left,q,q,1,547
2,20,female,left,Main,133,Invalid,Line,Right,750,Left,q,q,1,1849
2,20,female,left,Main,134,Invalid,Line,Right,300,Left,q,q,1,413
2,20,female,left,Main,135,Invalid,Line,Right,500,Left,q,q,1,387
2,20,female,left,Main,136,Invalid,Line,Right,150,Left,q,q,1,415
2,20,female,left,Main,137,Valid,Line,Left,150,Left,q,q,1,435
2,20,female,left,Main,138,Invalid,Line,Left,1000,Right,p,p,1,339
2,20,female,left,Main,139,Valid,Line,Left,750,Left,q,q,1,426
2,20,female,left,Main,140,Valid,Line,Left,1000,Left,q,q,1,395
2,20,female,left,Main,141,Invalid,Line,Right,1000,Left,q,q,1,325
2,20,female,left,Main,142,Invalid,Line,Left,750,Right,p,p,1,340
2,20,female,left,Main,143,Invalid,Line,Left,1000,Right,p,p,1,368
2,20,female,left,Main,144,Valid,Line,Right,1000,Right,p,p,1,388
2,20,female,left,Main,145,Valid,Line,Left,500,Left,q,q,1,306
2,20,female,left,Main,146,Valid,Line,Right,300,Right,p,p,1,332
2,20,female,left,Main,147,Valid,Line,Right,750,Right,p,p,1,315
2,20,female,left,Main,148,Invalid,Line,Left,300,Right,p,p,1,364
2,20,female,left,Main,149,Invalid,Line,Right,300,Left,q,q,1,428
2,20,female,left,Main,150,Invalid,Line,Left,150,Right,p,p,1,351
2,20,female,left,Main,151,Valid,Line,Right,150,Right,p,p,1,372
2,20,female,left,Main,152,Valid,Line,Left,750,Left,q,q,1,329
2,20,female,left,Main,153,Invalid,Line,Left,500,Right,p,p,1,322
2,20,female,left,Main,154,Invalid,Line,Right,150,Left,q,q,1,417
2,20,female,left,Main,155,Valid,Line,Left,1000,Left,q,q,1,354
2,20,female,left,Main,156,Valid,Line,Right,500,Right,p,p,1,322
2,20,female,left,Main,157,Valid,Line,Left,150,Left,q,q,1,369
2,20,female,left,Main,158,Valid,Line,Left,300,Left,q,q,1,392
2,20,female,left,Main,159,Invalid,Line,Right,750,Left,q,q,1,420
2,20,female,left,Main,160,Invalid,Line,Right,500,Left,q,q,1,441
2,20,female,left,Main,161,Invalid,Line,Right,150,Left,q,q,1,396
2,20,female,left,Main,162,Valid,Line,Right,750,Right,p,p,1,384
2,20,female,left,Main,163,Valid,Line,Left,150,Left,q,q,1,389
2,20,female,left,Main,164,Valid,Line,Left,500,Left,q,q,1,411
2,20,female,left,Main,165,Valid,Line,Right,500,Right,p,p,1,297
2,20,female,left,Main,166,Valid,Line,Left,750,Left,q,q,1,321
2,20,female,left,Main,167,Valid,Line,Left,1000,Left,q,q,1,381
2,20,female,left,Main,168,Invalid,Line,Left,750,Right,p,p,1,363
2,20,female,left,Main,169,Valid,Line,Left,300,Left,q,q,1,394
2,20,female,left,Main,170,Invalid,Line,Right,750,Left,q,q,1,407
2,20,female,left,Main,171,Invalid,Line,Left,1000,Right,p,p,1,328
2,20,female,left,Main,172,Invalid,Line,Right,1000,Left,q,q,1,494
2,20,female,left,Main,173,Valid,Line,Right,150,Right,p,p,1,390
2,20,female,left,Main,174,Invalid,Line,Left,300,Right,p,p,1,428
2,20,female,left,Main,175,Invalid,Line,Right,500,Left,q,q,1,385
2,20,female,left,Main,176,Invalid,Line,Left,500,Right,p,p,1,376
2,20,female,left,Main,177,Invalid,Line,Right,300,Left,q,q,1,567
2,20,female,left,Main,178,Valid,Line,Right,1000,Right,p,p,1,338
2,20,female,left,Main,179,Valid,Line,Right,300,Right,p,p,1,362
2,20,female,left,Main,180,Invalid,Line,Left,150,Right,p,p,1,464
2,20,female,left,Main,181,Valid,Line,Right,500,Right,p,p,1,339
2,20,female,left,Main,182,Valid,Line,Left,300,Left,q,q,1,332
2,20,female,left,Main,183,Valid,Line,Right,1000,Right,p,p,1,345
2,20,female,left,Main,184,Valid,Line,Right,150,Right,p,p,1,391
2,20,female,left,Main,185,Invalid,Line,Left,150,Right,p,p,1,403
2,20,female,left,Main,186,Invalid,Line,Left,750,Right,p,p,1,383
2,20,female,left,Main,187,Invalid,Line,Right,300,Left,q,q,1,406
2,20,female,left,Main,188,Valid,Line,Right,300,Right,p,p,1,316
2,20,female,left,Main,189,Valid,Line,Left,1000,Left,q,q,1,386
2,20,female,left,Main,190,Valid,Line,Left,150,Left,q,q,1,606
2,20,female,left,Main,191,Valid,Line,Left,500,Left,q,q,1,380
2,20,female,left,Main,192,Invalid,Line,Left,1000,Right,p,p,1,359
2,20,female,left,Main,193,Invalid,Line,Left,500,Right,p,p,1,406
2,20,female,left,Main,194,Invalid,Line,Right,750,Left,q,q,1,362
2,20,female,left,Main,195,Valid,Line,Left,750,Left,q,q,1,399
2,20,female,left,Main,196,Invalid,Line,Left,300,Right,p,p,1,397
2,20,female,left,Main,197,Invalid,Line,Right,150,Left,q,q,1,441
2,20,female,left,Main,198,Invalid,Line,Right,500,Left,q,q,1,366
2,20,female,left,Main,199,Valid,Line,Right,750,Right,p,p,1,492
2,20,female,left,Main,200,Invalid,Line,Right,1000,Left,q,q,1,634
2,20,female,left,Main,201,Valid,Line,Left,1000,Left,q,q,1,451
2,20,female,left,Main,202,Valid,Line,Right,750,Right,p,p,1,333
2,20,female,left,Main,203,Valid,Line,Left,150,Left,q,q,1,404
2,20,female,left,Main,204,Invalid,Line,Left,750,Right,p,p,1,335
2,20,female,left,Main,205,Invalid,Line,Right,300,Left,q,q,1,392
2,20,female,left,Main,206,Invalid,Line,Left,300,Right,p,p,1,374
2,20,female,left,Main,207,Invalid,Line,Left,1000,Right,p,p,1,337
2,20,female,left,Main,208,Valid,Line,Left,750,Left,q,q,1,352
2,20,female,left,Main,209,Invalid,Line,Left,500,Right,p,p,1,367
2,20,female,left,Main,210,Invalid,Line,Left,150,Right,p,p,1,460
2,20,female,left,Main,211,Valid,Line,Left,300,Left,q,q,1,456
2,20,female,left,Main,212,Invalid,Line,Right,750,Left,q,q,1,482
2,20,female,left,Main,213,Valid,Line,Right,500,Right,p,p,1,349
2,20,female,left,Main,214,Valid,Line,Left,500,Left,q,q,1,325
2,20,female,left,Main,215,Valid,Line,Right,1000,Right,p,p,1,282
2,20,female,left,Main,216,Valid,Line,Right,300,Right,p,p,1,389
2,20,female,left,Main,217,Invalid,Line,Right,150,Left,q,q,1,449
2,20,female,left,Main,218,Invalid,Line,Right,1000,Left,q,q,1,338
2,20,female,left,Main,219,Invalid,Line,Right,500,Left,q,q,1,402
2,20,female,left,Main,220,Valid,Line,Right,150,Right,p,p,1,350
2,20,female,left,Main,221,Invalid,Line,Right,150,Left,q,q,1,404
2,20,female,left,Main,222,Invalid,Line,Left,500,Right,p,p,1,346
2,20,female,left,Main,223,Valid,Line,Right,500,Right,p,p,1,425
2,20,female,left,Main,224,Valid,Line,Left,150,Left,q,q,1,412
2,20,female,left,Main,225,Invalid,Line,Left,750,Right,p,p,1,344
2,20,female,left,Main,226,Invalid,Line,Right,300,Left,q,q,1,480
2,20,female,left,Main,227,Invalid,Line,Right,500,Left,q,q,1,403
2,20,female,left,Main,228,Valid,Line,Right,750,Right,p,p,1,375
2,20,female,left,Main,229,Valid,Line,Left,1000,Left,q,q,1,362
2,20,female,left,Main,230,Invalid,Line,Right,1000,Left,q,q,1,438
2,20,female,left,Main,231,Invalid,Line,Right,750,Left,q,q,1,457
2,20,female,left,Main,232,Valid,Line,Right,1000,Right,p,p,1,320
2,20,female,left,Main,233,Valid,Line,Right,300,Right,p,p,1,361
2,20,female,left,Main,234,Invalid,Line,Left,1000,Right,p,p,1,365
2,20,female,left,Main,235,Valid,Line,Right,150,Right,p,p,1,403
2,20,female,left,Main,236,Valid,Line,Left,500,Left,q,q,1,504
2,20,female,left,Main,237,Invalid,Line,Left,150,Right,p,p,1,360
2,20,female,left,Main,238,Valid,Line,Left,300,Left,q,q,1,488
2,20,female,left,Main,239,Valid,Line,Left,750,Left,q,q,1,360
2,20,female,left,Main,240,Invalid,Line,Left,300,Right,p,p,1,456
3,24,male,right,Prac,1,Invalid,Face,Left,1000,Right,p,p,1,2101
3,24,male,right,Prac,2,Invalid,Face,Right,300,Left,q,q,1,351
3,24,male,right,Prac,3,Valid,Face,Right,750,Right,p,p,1,275
3,24,male,right,Prac,4,Valid,Arrow,Right,1000,Right,p,p,1,411
3,24,male,right,Prac,5,Invalid,Arrow,Left,150,Right,p,p,1,446
3,24,male,right,Prac,6,Valid,Arrow,Left,500,Left,q,q,1,322
3,24,male,right,Prac,7,Invalid,Line,Right,500,Left,q,q,1,323
3,24,male,right,Prac,8,Valid,Line,Left,750,Left,q,q,1,290
3,24,male,right,Prac,9,Invalid,Line,Left,150,Right,p,p,1,290
3,24,male,right,Main,1,Valid,Line,Left,750,Left,q,q,1,314
3,24,male,right,Main,2,Invalid,Line,Right,150,Left,q,q,1,329
3,24,male,right,Main,3,Invalid,Line,Left,500,Right,p,p,1,282
3,24,male,right,Main,4,Invalid,Line,Right,1000,Left,q,q,1,272
3,24,male,right,Main,5,Invalid,Line,Right,750,Left,q,q,1,297
3,24,male,right,Main,6,Valid,Line,Right,1000,Right,p,p,1,239
3,24,male,right,Main,7,Valid,Line,Left,300,Left,q,q,1,323
3,24,male,right,Main,8,Invalid,Line,Left,300,Right,p,p,1,316
3,24,male,right,Main,9,Valid,Line,Right,300,Right,p,p,1,309
3,24,male,right,Main,10,Valid,Line,Left,150,Left,q,q,1,268
3,24,male,right,Main,11,Invalid,Line,Left,150,Right,p,p,1,309
3,24,male,right,Main,12,Valid,Line,Right,150,Right,p,p,1,756
3,24,male,right,Main,13,Valid,Line,Left,1000,Left,q,q,1,240
3,24,male,right,Main,14,Invalid,Line,Left,1000,Right,p,p,1,281
3,24,male,right,Main,15,Valid,Line,Right,500,Right,p,p,1,267
3,24,male,right,Main,16,Valid,Line,Right,750,Right,p,p,1,300
3,24,male,right,Main,17,Invalid,Line,Left,750,Right,p,p,1,259
3,24,male,right,Main,18,Valid,Line,Left,500,Left,q,q,1,487
3,24,male,right,Main,19,Invalid,Line,Right,500,Left,q,q,1,505
3,24,male,right,Main,20,Invalid,Line,Right,300,Left,q,q,1,315
3,24,male,right,Main,21,Invalid,Line,Right,150,Left,q,q,1,329
3,24,male,right,Main,22,Invalid,Line,Right,750,Left,q,q,1,311
3,24,male,right,Main,23,Valid,Line,Left,300,Left,q,q,1,312
3,24,male,right,Main,24,Valid,Line,Left,150,Left,q,q,1,343
3,24,male,right,Main,25,Valid,Line,Left,750,Left,q,q,1,309
3,24,male,right,Main,26,Valid,Line,Right,750,Right,p,p,1,293
3,24,male,right,Main,27,Invalid,Line,Left,300,Right,p,p,1,351
3,24,male,right,Main,28,Invalid,Line,Left,750,Right,p,p,1,309
3,24,male,right,Main,29,Invalid,Line,Right,500,Left,q,q,1,350
3,24,male,right,Main,30,Valid,Line,Right,500,Right,p,p,1,718
3,24,male,right,Main,31,Valid,Line,Right,300,Right,p,p,1,311
3,24,male,right,Main,32,Invalid,Line,Right,1000,Left,q,q,1,261
3,24,male,right,Main,33,Valid,Line,Left,1000,Left,q,q,1,316
3,24,male,right,Main,34,Valid,Line,Left,500,Left,q,q,1,285
3,24,male,right,Main,35,Invalid,Line,Left,500,Right,p,p,1,311
3,24,male,right,Main,36,Invalid,Line,Left,1000,Right,p,p,1,261
3,24,male,right,Main,37,Invalid,Line,Right,300,Left,q,q,1,296
3,24,male,right,Main,38,Invalid,Line,Left,150,Right,p,p,1,352
3,24,male,right,Main,39,Valid,Line,Right,1000,Right,p,p,1,284
3,24,male,right,Main,40,Valid,Line,Right,150,Right,p,p,1,316
3,24,male,right,Main,41,Valid,Line,Right,1000,Right,p,p,1,297
3,24,male,right,Main,42,Valid,Line,Left,300,Left,q,q,1,306
3,24,male,right,Main,43,Valid,Line,Left,500,Left,q,q,1,316
3,24,male,right,Main,44,Invalid,Line,Left,1000,Right,p,p,1,281
3,24,male,right,Main,45,Invalid,Line,Right,300,Left,q,q,1,323
3,24,male,right,Main,46,Invalid,Line,Right,500,Left,q,q,1,332
3,24,male,right,Main,47,Invalid,Line,Right,1000,Left,q,q,1,272
3,24,male,right,Main,48,Invalid,Line,Left,300,Right,p,p,1,299
3,24,male,right,Main,49,Invalid,Line,Left,750,Right,p,p,1,259
3,24,male,right,Main,50,Invalid,Line,Left,150,Right,p,p,1,316
3,24,male,right,Main,51,Valid,Line,Right,750,Right,p,p,1,307
3,24,male,right,Main,52,Valid,Line,Right,300,Right,p,p,1,308
3,24,male,right,Main,53,Valid,Line,Left,1000,Left,q,q,1,298
3,24,male,right,Main,54,Valid,Line,Right,150,Right,p,p,1,338
3,24,male,right,Main,55,Invalid,Line,Right,150,Left,q,q,1,352
3,24,male,right,Main,56,Valid,Line,Right,500,Right,p,p,1,287
3,24,male,right,Main,57,Valid,Line,Left,150,Left,q,q,1,295
3,24,male,right,Main,58,Invalid,Line,Right,750,Left,q,q,1,320
3,24,male,right,Main,59,Valid,Line,Left,750,Left,q,q,1,295
3,24,male,right,Main,60,Invalid,Line,Left,500,Right,p,p,1,289
3,24,male,right,Main,61,Invalid,Line,Left,150,Right,p,p,1,457
3,24,male,right,Main,62,Valid,Line,Right,150,Right,p,p,1,290
3,24,male,right,Main,63,Valid,Line,Left,500,Left,q,q,1,268
3,24,male,right,Main,64,Invalid,Line,Left,1000,Right,p,p,1,251
3,24,male,right,Main,65,Invalid,Line,Right,1000,Left,q,q,1,274
3,24,male,right,Main,66,Invalid,Line,Left,500,Right,p,p,1,333
3,24,male,right,Main,67,Valid,Line,Left,150,Left,q,q,1,355
3,24,male,right,Main,68,Invalid,Line,Right,150,Left,q,q,1,385
3,24,male,right,Main,69,Valid,Line,Right,1000,Right,p,p,1,315
3,24,male,right,Main,70,Valid,Line,Right,750,Right,p,p,1,258
3,24,male,right,Main,71,Invalid,Line,Right,300,Left,q,q,1,325
3,24,male,right,Main,72,Invalid,Line,Left,300,Right,p,p,1,310
3,24,male,right,Main,73,Valid,Line,Left,1000,Left,q,q,1,284
3,24,male,right,Main,74,Invalid,Line,Left,750,Right,p,p,1,292
3,24,male,right,Main,75,Valid,Line,Right,500,Right,p,p,1,431
3,24,male,right,Main,76,Valid,Line,Right,300,Right,p,p,1,315
3,24,male,right,Main,77,Valid,Line,Left,300,Left,q,q,1,268
3,24,male,right,Main,78,Invalid,Line,Right,500,Left,q,q,1,342
3,24,male,right,Main,79,Invalid,Line,Right,750,Left,q,q,1,317
3,24,male,right,Main,80,Valid,Line,Left,750,Left,q,q,1,316
3,24,male,right,Main,81,Invalid,Line,Left,300,Right,p,p,1,316
3,24,male,right,Main,82,Valid,Line,Left,150,Left,q,q,1,266
